id,trial,gender,group,age,time,trial_type1,trial_type2,trial_type3,trial_type4,trial_type5,trial_type6,trial_type7,trial_type8,trial_type9,trial_type10,trial_type11,trial_type12,trial_type13,trial_type14,trial_type15,trial_type16,trial_type17,trial_type18,trial_type19,trial_type20,rt1,rt2,rt3,rt4,rt5,rt6,rt7,rt8,rt9,rt10,rt11,rt12,rt13,rt14,rt15,rt16,rt17,rt18,rt19,rt20,accuracy1,accuracy2,accuracy3,accuracy4,accuracy5,accuracy6,accuracy7,accuracy8,accuracy9,accuracy10,accuracy11,accuracy12,accuracy13,accuracy14,accuracy15,accuracy16,accuracy17,accuracy18,accuracy19,accuracy20,avg_incongruent,avg_congruent,acc_incongruent,acc_congruent
1,1,M,exercise,29,09:33:36,False,True,False,False,True,False,False,False,True,False,False,False,True,True,True,False,False,False,True,True,1.7888139343261722,1.4600070571899415,1.1302741622924806,1.0280459976196288,1.5931349849700929,1.4205680942535401,1.7038010215759276,1.6870461559295655,0.8703299617767334,1.4277502155303956,1.6404489135742188,1.1062129592895509,1.137179002761841,1.4127100563049317,1.3810583209991456,1.2869258975982667,1.5387769794464112,2.025065050125122,1.271677122116089,1.2156840419769288,Correct,Correct,Correct,Correct,Correct,Correct,Correct,Correct,Correct,Correct,Correct,Correct,Correct,Correct,Correct,Correct,Correct,Correct,Correct,Correct
1,2,M,exercise,29,09:43:55,True,False,True,True,True,True,False,True,True,True,True,True,True,False,False,True,False,True,True,False,0.9473467922210693,1.5296710586547853,1.2244380569458009,0.9961911296844482,0.980452880859375,1.066778049468994,1.4127610778808595,1.1065000152587892,0.8549710369110107,1.1695479011535646,1.2395392513275147,0.7536779499053955,1.2241927242279054,1.6249149894714356,1.294725046157837,1.200634822845459,1.5700210189819337,1.2480529403686524,1.011862859725952,1.7273789501190187,Correct,Correct,Correct,Correct,Correct,Correct,Correct,Correct,Correct,Correct,Correct,Correct,Correct,Correct,Correct,Correct,Correct,Correct,Correct,Correct
2,1,M,exercise,29,08:04:14,False,False,True,False,True,True,True,True,False,False,True,True,True,True,True,True,True,True,True,True,1.7655027961730958,2.033511028289795,0.9179960346221924,1.4609511947631837,1.0673781490325929,1.1378961658477784,1.1690031147003175,1.0190540409088136,1.9313319778442386,1.177473888397217,1.0435529804229737,1.1066630935668944,1.232670888900757,0.9883810138702392,0.9028659915924072,0.894379243850708,0.8942040061950683,1.2720068550109864,0.8942540740966797,1.2862800216674806,Correct,Correct,Correct,Correct,Correct,Correct,Correct,Correct,Correct,Correct,Correct,Correct,Correct,Correct,Correct,Correct,Correct,Correct,Correct,Correct
2,2,M,exercise,29,08:12:49,True,False,False,True,False,True,True,False,False,True,False,True,True,False,True,False,False,True,True,False,1.2319320297241212,1.1238092041015626,1.0520340061187745,1.3105171775817872,0.9335678672790527,0.9255241012573242,0.9177371120452881,1.3662060356140138,1.0589419460296632,0.7765189266204834,1.0750323390960692,0.7369328594207764,0.7677842235565185,0.9484077548980713,0.6977103805541992,0.8630519962310791,0.9413291072845459,0.6902407264709473,0.7603880023956299,0.7368370151519775,Correct,Correct,Correct,Correct,Correct,Correct,Correct,Correct,Correct,Correct,Correct,Correct,Correct,Correct,Correct,Correct,Correct,Correct,Correct,Correct
3,1,F,exercise,24,09:19:54,False,True,False,True,False,False,False,False,False,False,False,False,False,False,False,False,False,False,False,False,1.5927678203582765,1.1134520626068116,1.1682582950592042,1.1691239929199222,1.0590041732788087,1.7900777912139894,1.7350040531158448,1.161213026046753,1.4597557640075685,1.4045439815521241,1.1450229740142823,1.270766124725342,1.2006572341918944,0.9414101696014404,1.8142460441589356,1.4213210201263429,1.2244559383392335,0.9969359493255615,1.9165946102142337,1.5235801792144776,Correct,Correct,Correct,Correct,Correct,Correct,Correct,Correct,Correct,Correct,Correct,Correct,Correct,Correct,Correct,Correct,Correct,Correct,Correct,Correct
3,2,F,exercise,24,09:28:43,False,False,False,True,False,False,False,False,False,False,True,False,False,True,True,False,False,True,False,False,1.2865048503875733,0.7925032234191894,1.051856861114502,1.0831698036193849,1.6570471382141112,1.2090438461303712,1.3739260292053226,1.154248104095459,1.1459587669372562,1.0441709613800048,1.2720299816131593,1.664753065109253,0.8870390510559082,1.1225796794891356,0.9339827156066894,1.3661538219451905,0.9811130619049072,0.760986909866333,1.3430632209777833,0.9653216457366943,Correct,Correct,Correct,Correct,Correct,Correct,Correct,Correct,Correct,Correct,Correct,Correct,Correct,Correct,Correct,Correct,Correct,Correct,Correct,Correct
4,1,F,exercise,26,09:35:05,False,True,False,False,False,False,True,False,False,False,False,True,False,False,False,False,True,False,False,False,1.057462797164917,1.0428169822692872,1.6339589214324952,1.224330291748047,1.8607498264312745,1.2237497425079347,1.066850290298462,1.4438980674743653,1.0355530834198,1.4367920017242433,1.1612118339538575,1.153825149536133,1.114046678543091,1.1612979030609132,1.7901631450653077,1.0196798896789552,1.0514341449737548,0.9728201484680176,1.373382911682129,1.2160409545898438,Correct,Correct,Correct,Correct,Correct,Correct,Correct,Correct,Correct,Correct,Correct,Correct,Correct,Correct,Correct,Correct,Correct,Correct,Correct,Correct
4,2,F,exercise,26,09:43:12,True,True,True,False,False,False,False,False,True,False,False,False,False,True,False,False,False,False,True,False,1.1912489986419679,0.9630170917510986,1.0896926975250245,1.2548380947113038,0.980568037033081,1.2399231052398683,1.452212200164795,2.025839910507202,1.0199791049957276,1.3107670402526856,0.9021409606933594,1.3814331150054933,1.8143299674987794,0.9331580257415771,1.7985349750518802,1.3807951068878175,1.0278030490875245,1.0674317932128907,0.9895950412750244,0.9332083320617676,Correct,Correct,Correct,Correct,Correct,Correct,Correct,Correct,Correct,Correct,Correct,Correct,Correct,Correct,Correct,Correct,Correct,Correct,Correct,Correct
5,1,F,exercise,25,10:16:02,True,False,False,False,False,False,True,False,True,False,False,False,False,False,True,False,False,False,False,False,1.3178919410705567,1.1903849697113038,1.2397638416290284,1.3023279762268067,0.9727128601074219,1.215700731277466,1.5152259922027589,1.1846331214904784,1.2164879894256593,1.782118902206421,1.0668378925323487,2.308685884475708,1.570627317428589,1.3191779708862306,0.9726129627227783,1.1062160587310792,2.2936419105529784,1.1383420085906983,1.0037230110168458,3.934563026428222,Correct,Correct,Correct,Correct,Correct,Correct,Correct,Correct,Correct,Correct,Correct,Correct,Correct,Correct,Correct,Correct,Correct,Correct,Correct,Correct
5,2,F,exercise,25,10:24:22,False,True,False,False,True,False,True,True,False,True,False,False,False,False,True,False,False,False,False,True,1.2306572055816651,1.3973418331146241,1.4353941535949708,1.3890839672088624,1.075094804763794,1.2247680282592772,1.3028811073303226,0.9889181709289551,1.2799869632720948,0.9879680728912353,1.459356174468994,1.4910350894927982,0.9339889144897461,1.6647158718109132,1.1228331184387208,1.5702849483489991,0.9734612560272217,0.9262622451782226,1.1378518199920655,1.6683808422088624,Correct,Correct,Correct,Correct,Correct,Correct,Correct,Correct,Correct,Correct,Correct,Correct,Correct,Correct,Correct,Correct,Correct,Correct,False,Correct
6,1,M,exercise,29,10:29:44,False,False,True,False,False,False,False,False,False,False,False,False,False,False,True,True,False,False,False,False,1.694602117538452,1.837262020111084,1.3813341712951661,1.176734790802002,1.0905512428283692,1.1610871410369874,1.0827981090545655,1.6642027950286864,1.2553020572662354,1.0120090103149415,1.2235311126708985,1.263110980987549,0.8505509948730469,1.4200953102111817,1.0673020935058595,0.8937460041046142,1.491025791168213,0.8862489318847656,1.1529739952087403,2.00186692237854,Correct,Correct,Correct,Correct,Correct,Correct,Correct,Correct,Correct,Correct,Correct,Correct,Correct,Correct,Correct,Correct,Correct,Correct,Correct,Correct
6,2,M,exercise,29,10:38:16,False,False,False,False,False,False,False,False,False,False,False,False,False,False,False,False,False,False,False,False,1.8038478946685792,1.1547478294372562,1.1538249111175538,1.4442320919036864,1.1609247779846192,1.6083329772949222,1.0433748817443849,1.0431369400024415,2.089177951812744,1.2711990928649903,1.4518729305267335,1.082648859024048,1.357431039810181,1.4124492263793944,1.0276928997039796,2.457806930541992,1.0590339756011964,1.4833530044555665,1.1452468490600587,1.5538509941101075,Correct,Correct,Correct,Correct,Correct,Correct,Correct,Correct,Correct,Correct,Correct,Correct,Correct,Correct,Correct,Correct,Correct,Correct,Correct,Correct
7,1,M,exercise,29,19:40:45,False,False,False,False,False,False,True,False,True,False,False,True,True,False,False,False,False,True,False,False,1.427305088043213,1.6480537509918214,1.3496550178527833,1.5063980674743653,2.308024272918701,1.4120279407501222,1.6559110736846925,1.152752027511597,1.2790258979797364,1.7182348823547364,1.5392089939117433,1.4440721130371095,1.3418499088287354,1.3029349899291993,1.0353118038177491,1.5624490833282472,1.3418708896636964,1.3888298130035401,1.7901137924194337,1.6642688369750978,Correct,Correct,Correct,Correct,Correct,Correct,Correct,Correct,Correct,Correct,Correct,Correct,Correct,Correct,Correct,Correct,Correct,Correct,Correct,Correct
7,2,M,exercise,29,19:50:02,True,False,True,False,True,False,False,False,False,False,False,False,False,False,True,True,False,True,False,True,0.9629782295227051,1.0350328540802003,1.4915779685974122,1.0505288696289063,0.8779529190063476,1.2391861534118653,1.3491738891601563,1.1921969509124757,1.145031795501709,0.9092770671844482,1.3254052257537843,1.3651929950714112,1.2783859825134276,1.0586539363861085,1.2400530433654784,0.8696678733825683,1.396175012588501,1.2397101974487306,1.0114205932617188,2.1423460102081298,Correct,Correct,Correct,Correct,Correct,Correct,Correct,Correct,Correct,Correct,Correct,Correct,Correct,Correct,Correct,Correct,Correct,Correct,Correct,Correct
8,1,M,exercise,26,12:26:48,False,False,False,True,False,False,False,False,False,False,False,False,False,True,False,False,False,False,False,False,1.6389048099517822,1.0344021320343018,1.1992411613464355,1.2226431369781494,2.9044978618621826,0.8228998184204102,1.5609729290008545,1.388150930404663,1.177015781402588,1.4435598850250244,1.3967878818511963,1.6324000358581543,1.6553888320922852,0.8082239627838135,1.420591115951538,1.0197811126708984,0.9413671493530273,1.9780330657958984,2.0341169834136963,1.7897920608520508,Correct,Correct,Correct,Correct,Correct,Incorrect,Correct,Correct,Correct,Correct,Correct,Correct,Correct,Correct,Correct,Correct,Incorrect,Correct,Correct,Correct
8,2,M,exercise,26,12:35:08,False,False,False,False,False,False,True,False,False,False,False,False,True,False,False,False,False,False,False,True,2.0485026836395264,1.8134620189666748,0.9410278797149658,1.5935468673706055,1.530709981918335,1.6408569812774658,1.3576788902282715,1.2478020191192627,1.2008380889892578,0.8311290740966797,1.5936551094055176,1.3496730327606201,1.3659770488739014,1.5312237739562988,1.4685912132263184,1.3490900993347168,0.878420352935791,1.6641910076141357,0.8307011127471924,1.0905671119689941,Correct,Correct,Correct,Correct,Correct,Correct,Correct,Correct,Correct,Correct,Correct,Correct,Correct,Correct,Correct,Correct,Correct,Correct,Incorrect,Correct
9,1,F,control,21,12:39:45,False,True,False,True,False,False,False,False,False,False,False,False,False,False,True,False,False,False,False,False,1.2784790992736816,1.003213882446289,1.5531761646270752,1.475372076034546,1.5618388652801514,1.7336649894714355,1.287147045135498,0.92417311668396,1.0356149673461914,1.1756742000579834,1.450981855392456,1.0032908916473389,1.4272511005401611,1.459503173828125,1.1295931339263916,1.452270269393921,0.9960150718688965,1.2715487480163574,1.0818090438842773,1.0745878219604492,Correct,Correct,Correct,Correct,Correct,Correct,Correct,Correct,Correct,Correct,Incorrect,Correct,Correct,Correct,Correct,Correct,Incorrect,Correct,Correct,Incorrect
9,2,F,control,21,12:47:53,False,True,False,False,False,False,True,False,False,True,False,False,False,False,True,False,True,False,False,False,1.1210601329803467,2.417862892150879,0.9413871765136719,2.5360381603240967,2.6457438468933105,1.3330049514770508,1.0584020614624023,1.506986379623413,1.1766269207000732,1.4198989868164062,1.0103249549865723,2.716731071472168,1.128493070602417,1.2551190853118896,0.853938102722168,1.365689754486084,1.2391741275787354,0.9797687530517578,0.7754719257354736,1.4666728973388672,Correct,Correct,Incorrect,Correct,Correct,Correct,Correct,Incorrect,Correct,Correct,Correct,Correct,Correct,Incorrect,Correct,Correct,Correct,Correct,Incorrect,Correct
10,1,F,exercise,24,12:51:19,False,False,False,False,False,False,False,False,True,False,False,False,False,False,False,False,False,True,False,False,1.2841191291809082,1.3649511337280273,1.0348329544067383,0.9795289039611816,1.497859001159668,1.4905962944030762,1.5612683296203613,1.5150210857391357,0.9636731147766113,1.2228889465332031,1.3331549167633057,1.514037847518921,1.0112361907958984,1.3972411155700684,1.3492028713226318,1.1293230056762695,1.3727068901062012,1.388357162475586,1.3481619358062744,1.302415132522583,Correct,Correct,Correct,Correct,Correct,Correct,Correct,Correct,Correct,Correct,Correct,Correct,Correct,Correct,Correct,Correct,Correct,Correct,Correct,Correct
10,2,F,exercise,24,12:59:53,False,False,False,False,False,False,False,False,False,False,False,False,False,False,True,False,False,False,False,False,1.5121102333068848,1.1918201446533203,0.9790380001068115,1.129288911819458,1.3961877822875977,1.2236897945404053,1.2156789302825928,1.027068853378296,1.0343570709228516,1.0433518886566162,1.3725299835205078,0.9798438549041748,1.0348930358886719,1.1466233730316162,1.5138359069824219,1.081538200378418,1.3825569152832031,0.9016540050506592,1.1444501876831055,1.1531410217285156,Correct,Correct,Correct,Correct,Correct,Correct,Correct,Correct,Correct,Correct,Correct,Correct,Correct,Correct,Correct,Correct,Correct,Correct,Correct,Correct
11,1,M,control,29,09:13:54,False,False,False,False,False,False,False,False,False,True,True,False,False,True,False,False,False,False,False,False,1.8751170635223389,1.050570011138916,1.1212639808654785,1.73443603515625,1.8921070098876953,1.1765739917755127,1.3187060356140137,1.2318460941314697,1.310075044631958,1.7815191745758057,1.318159818649292,1.1145429611206055,1.4986670017242432,1.3815531730651855,0.9100017547607422,1.1214079856872559,2.12716007232666,1.19224214553833,1.68745756149292,1.0743160247802734,Correct,Correct,Correct,Correct,Correct,Correct,Correct,Correct,Correct,Correct,Correct,Correct,Correct,Correct,Correct,Correct,Correct,Correct,Correct,Correct
11,2,M,control,29,09:20:30,False,True,False,True,True,True,True,False,True,False,False,False,False,False,False,False,False,False,False,False,1.3953721523284912,1.9048759937286377,1.5145909786224365,1.419034719467163,1.9228763580322266,1.0507593154907227,1.1846919059753418,0.9878740310668945,1.183967113494873,1.1919209957122803,1.302954912185669,1.3338191509246826,1.066978931427002,1.0030198097229004,0.9640047550201416,1.4434669017791748,1.1139781475067139,1.4511470794677734,0.8699252605438232,1.7967419624328613,Correct,Correct,Correct,Correct,Correct,Correct,Correct,Correct,Correct,Correct,Correct,Correct,Correct,Correct,Correct,Correct,Correct,Correct,Correct,Correct
12,1,M,control,22,12:24:27,False,False,False,False,False,False,False,False,False,False,False,False,False,False,False,False,False,True,True,True,3.8088457584381104,1.441983938217163,1.6473453044891357,1.9861998558044434,1.3333020210266113,1.238081932067871,1.4905269145965576,1.7337870597839355,2.0326969623565674,2.6536338329315186,1.9076018333435059,1.5456011295318604,1.3643081188201904,1.4429330825805664,1.9224929809570312,0.9254748821258545,1.2387890815734863,0.9717347621917725,1.4984571933746338,1.2391901016235352,Incorrect,Correct,Correct,Correct,Correct,Correct,Correct,Correct,Correct,Correct,Correct,Correct,Correct,Correct,Correct,Correct,Correct,Correct,Correct,Correct
12,2,M,control,22,12:32:44,False,False,False,True,False,True,False,False,False,True,True,False,False,False,False,False,False,False,False,False,2.1661250591278076,1.2310290336608887,1.2782471179962158,1.0112149715423584,1.0184762477874756,1.2068989276885986,1.435256004333496,1.309075117111206,1.191342830657959,1.5619862079620361,1.3956999778747559,1.0898170471191406,0.94936203956604,1.419234037399292,1.018899917602539,1.4356660842895508,1.082467794418335,1.0503911972045898,1.2468910217285156,1.6482901573181152,Correct,Correct,Correct,Correct,Correct,Correct,Correct,Correct,Correct,Correct,Correct,Correct,Correct,Correct,Correct,Correct,Correct,Correct,Correct,Correct
13,1,M,control,23,12:53:36,False,True,False,False,False,True,False,False,False,False,False,False,False,False,False,False,False,False,False,False,1.1614758968353271,2.7951250076293945,1.6639001369476318,1.278494119644165,1.474905014038086,1.23160982131958,1.2705681324005127,1.8367881774902344,1.2554879188537598,1.2953131198883057,1.5062720775604248,1.5225319862365723,1.2393462657928467,1.285959005355835,1.3026258945465088,0.971919059753418,1.223510980606079,0.932790994644165,1.0423002243041992,1.396653652191162,Correct,Correct,Correct,Correct,Correct,Correct,Correct,Correct,Correct,Correct,Correct,Correct,Correct,Correct,Correct,Correct,Correct,Correct,Correct,Correct
13,2,M,control,23,12:56:00,False,False,True,False,False,False,False,False,False,False,False,False,False,True,False,False,False,False,False,True,1.2775280475616455,1.7504191398620605,1.380383014678955,0.9250881671905518,1.8677830696105957,1.491454839706421,0.9561417102813721,1.0508899688720703,1.16105318069458,1.1210579872131348,1.168609619140625,1.4361600875854492,1.0893850326538086,0.9797790050506592,0.9400229454040527,1.1765711307525635,1.1601972579956055,1.333380937576294,0.9790141582489014,1.2083308696746826,Correct,Correct,Correct,Correct,Correct,Correct,Correct,Correct,Correct,Correct,Correct,Correct,Correct,Correct,Correct,Correct,Correct,Correct,Correct,Correct
31,1,M,control,26,10:01:03,False,False,False,True,False,True,True,False,False,False,False,False,False,False,True,True,False,False,True,False,1.941048861,2.111069679,1.794070005,1.565849781,1.767048359,1.314768553,0.97497654,2.038526297,1.50721693,1.299113274,1.520154715,1.823907614,1.484370708,1.040594816,1.330091476,0.891905546,1.978683949,1.024142027,1.144704819,1.550774097,Correct,Correct,Correct,Correct,Correct,Correct,Correct,Correct,Correct,Correct,Correct,Correct,Correct,Correct,Correct,Correct,Correct,Correct,Correct,Correct
31,2,M,control,26,10:07:16,False,False,False,False,False,False,False,False,False,False,False,False,False,True,False,False,False,False,False,False,1.606055737,1.321624756,1.165719271,1.811151981,0.975091457,1.514893532,1.337548733,1.256523848,1.610914469,1.83927989,1.063544035,1.557748318,0.864743948,1.566890001,1.654068947,1.496730804,1.158677816,1.292004108,1.101215124,1.62462616,Correct,Correct,Correct,Correct,Correct,Correct,Correct,Correct,Correct,Correct,Correct,Correct,Correct,Correct,Correct,Correct,Correct,Correct,Correct,Correct
32,1,M,control,25,10:43:04,False,False,False,False,True,False,False,False,False,False,False,False,True,False,False,False,False,True,True,False,1.137867212,1.969964981,1.613369703,1.179210186,1.376721859,2.226018906,2.278913736,2.077143192,1.634626389,1.558754683,2.171197414,1.059452534,1.655689478,1.497587204,1.858710289,2.624575853,2.183857679,1.577735186,1.084599495,1.401511192,Correct,Correct,Correct,Correct,Correct,Correct,Correct,Correct,Correct,Correct,Correct,Correct,Correct,Correct,Correct,Correct,Correct,Correct,Correct,Correct
32,2,M,control,25,10:51:32,False,False,False,False,True,False,False,False,False,False,False,False,False,True,False,True,True,True,True,True,1.994986296,3.09928894,1.032664061,1.696624041,1.612720013,2.463045835,1.166208982,2.043115139,1.136693954,0.971682787,2.021095514,1.422624826,0.899095535,1.317154408,1.358377218,1.961187124,0.699669361,1.434788227,1.966819525,0.758935452,Correct,Correct,Correct,Correct,Correct,Correct,Correct,Correct,Correct,Correct,Correct,Correct,Correct,Correct,Correct,Correct,Correct,Correct,Correct,Correct
33,1,M,control,24,11:26:23,True,False,False,False,True,False,False,False,False,False,True,False,False,False,False,False,True,True,False,False,2.246658087,2.315176725,1.771959305,1.628570318,1.838298559,1.691146374,1.679529428,2.379897594,2.436040878,1.328290939,1.982131243,2.225471735,1.873717785,1.816409588,2.8776021,2.206923962,2.128918171,1.639107466,2.015093088,2.554228783,Correct,Correct,Correct,Correct,Correct,Correct,Correct,Correct,Correct,Correct,Correct,Correct,Correct,Correct,Correct,Correct,Correct,Correct,Correct,Correct
33,2,M,control,24,11:34:00,False,True,True,True,True,False,True,False,True,False,False,False,False,False,False,False,False,False,True,False,1.958046675,1.336795807,1.113584042,1.845966816,1.570031166,1.319222212,2.234767199,2.095674515,1.366227627,2.035972834,1.70391345,1.615885019,1.629707575,1.843724251,1.60956645,1.645098925,1.653288603,2.029267311,2.052013636,1.714520216,Correct,Correct,Correct,Correct,Correct,Correct,Correct,Correct,Correct,Correct,Correct,Correct,Correct,Correct,Correct,Correct,Correct,Correct,Correct,Correct
34,1,F,control,26,11:56:29,False,False,False,True,False,False,False,False,False,True,False,False,True,False,False,False,False,True,False,False,1.199540615,3.601738214,1.732147932,0.966511488,0.980831385,1.196357012,0.689825296,1.419472456,1.93336463,2.348125696,0.727927685,1.232973099,0.679112434,1.404146671,1.23494792,0.798684835,0.865894556,0.622176886,0.97010684,2.05999589,Correct,Correct,Correct,Correct,Correct,Correct,Correct,Correct,Correct,Correct,Correct,Correct,Correct,Correct,Correct,Correct,Correct,Correct,Correct,Correct
34,2,F,control,26,11:58:57,False,False,True,False,False,True,False,False,True,True,False,True,True,False,False,False,False,False,False,False,0.911674023,1.757250786,1.056770563,2.236682653,1.54198885,1.061461687,1.653939009,0.776499987,0.716359377,0.746100426,1.21259141,0.827155828,1.281241179,0.932075262,0.650370598,0.997742653,0.922787666,1.571400642,1.798531294,0.921154022,Correct,Correct,Correct,Correct,Correct,Correct,Correct,Correct,Correct,Correct,Correct,Correct,Correct,Correct,Correct,Correct,Correct,Correct,Correct,Correct
35,1,F,exercise,22,14:25:17,False,False,False,False,False,True,True,False,False,False,True,False,False,True,False,False,False,False,False,False,2.392965317,1.657161951,2.15178299,4.075509071,2.778769016,1.762423038,2.227214575,3.257449627,3.264767647,2.409557104,1.776020288,2.181885719,1.548429012,1.746979713,1.629118204,2.535258293,2.248764277,2.225790024,3.102328777,1.569605827,Correct,Correct,Correct,Correct,Correct,Correct,Correct,Correct,Correct,Correct,Correct,Correct,Correct,Correct,Correct,Correct,Correct,Correct,Correct,Correct
36,1,M,exercise,26,14:29:47,False,False,True,False,True,False,False,False,True,False,False,False,False,True,False,False,False,False,True,True,1.41145134,1.357174635,1.15057826,1.20897913,1.237436533,1.562921524,1.613616705,1.627902269,2.588567257,1.347285271,1.122028828,2.011852741,2.197024107,1.141375065,1.953480959,1.327267647,1.488767624,1.392052889,1.488792896,1.171673059,Correct,Correct,Correct,Correct,Correct,Correct,Correct,Correct,Correct,Correct,Correct,Correct,Correct,Correct,Correct,Correct,Correct,Correct,Correct,Correct
35,2,F,exercise,22,14:32:52,True,False,False,False,False,False,False,False,False,False,True,True,False,False,True,True,False,False,False,False,1.928701162,2.460711479,1.827689648,1.710973263,2.101717472,1.312803745,2.461936235,3.280633926,3.472043514,2.13291502,1.950870514,1.305105925,2.579826117,2.74230361,1.46500206,1.866098404,1.76860261,1.931677341,1.974979877,2.153642654,Correct,Correct,Correct,Correct,Correct,Correct,Correct,Correct,Correct,Correct,Correct,Correct,Correct,Correct,Correct,Correct,Correct,Correct,Correct,Correct
37,1,M,exercise,23,14:35:26,False,False,True,False,True,False,False,False,False,False,False,False,False,False,False,False,False,False,False,False,2.23022294,2.771107197,3.155345201,2.026991367,1.938471317,2.344857454,2.308284998,2.785895824,2.226824522,4.558172226,2.963898182,2.979842663,2.698587894,2.051432848,1.573001146,2.331624031,2.404514074,2.64124465,3.87231946,2.640638351,Correct,Correct,Correct,Correct,Correct,Correct,Correct,Correct,Correct,Correct,Correct,Correct,Correct,Correct,Correct,Correct,Correct,Correct,Correct,Correct
36,2,M,exercise,24,14:38:21,False,False,False,False,True,False,False,False,False,False,False,False,False,False,False,False,False,False,True,False,1.315834284,1.467834711,1.792924643,1.259110451,1.372245312,1.392491102,1.451937199,1.843673944,1.474732161,1.370414734,1.27568841,1.511867285,2.071123838,1.142432451,1.253139019,1.112750769,1.429639816,1.459593296,1.069512844,1.703721762,Correct,Correct,Correct,Correct,Correct,Correct,Correct,Correct,Correct,Correct,Correct,Correct,Correct,Correct,Correct,Correct,Correct,Correct,Correct,Correct
37,2,M,exercise,23,14:43:18,False,False,False,False,True,False,False,True,False,False,False,False,False,False,False,False,False,False,True,False,1.958901405,2.130910158,1.814278364,1.880828381,2.33773303,2.169409513,2.301347256,2.198730946,2.271870852,2.08025074,2.677904367,1.75544548,2.287327528,3.298982382,2.507601023,1.940985918,2.390640497,2.1009655,1.955690861,1.886835337,Correct,Correct,Correct,Correct,Correct,Correct,Correct,Correct,Correct,Correct,Correct,Correct,Correct,Correct,Correct,Correct,Correct,Correct,Correct,Correct
38,1,M,exercise,22,14:52:47,False,False,False,False,False,False,False,False,False,False,True,False,False,False,True,False,True,False,False,False,1.659790516,1.341601849,1.333146095,1.214908838,1.760062933,1.525434732,1.928641081,2.039790392,1.953301668,2.019340515,1.807012558,1.612208366,1.187212706,1.445055485,1.663590431,2.093123198,1.187369585,1.834615469,1.598037958,1.761104345,Correct,Correct,Correct,Correct,Correct,Correct,Correct,Correct,Correct,Correct,Correct,Correct,Correct,Correct,Correct,Correct,Correct,Correct,Correct,Correct
38,2,M,exercise,22,15:01:44,False,True,True,True,False,False,False,False,False,False,False,False,False,False,False,False,False,False,False,False,2.605353117,1.629226923,2.31379056,1.164819241,1.518288851,1.6269629,1.287638903,1.629145384,1.915666342,1.347893715,1.613411903,1.64124155,1.72434783,1.473986626,1.532125473,1.731697559,1.360158205,1.634402037,1.68761754,1.503232718,Correct,Correct,Correct,Correct,Correct,Correct,Correct,Correct,Correct,Correct,Correct,Correct,Correct,Correct,Correct,Correct,Correct,Correct,Correct,Correct
39,1,M,control,22,15:05:15,False,False,True,False,True,True,False,False,False,False,False,True,False,False,False,False,True,True,False,False,1.551522017,1.591240644,1.399032831,1.472344637,1.448937654,1.420579195,1.479221821,1.457325697,1.530348063,1.404496431,1.332177639,1.744983912,1.507372379,1.310990572,1.368594646,1.198506117,1.170057297,1.286556959,1.037825346,1.782523155,Correct,Correct,Correct,Correct,Correct,Correct,Correct,Correct,Correct,Correct,Correct,Correct,Correct,Correct,Correct,Correct,Correct,Correct,Correct,Correct
39,2,M,control,22,15:13:07,False,False,False,True,False,False,False,False,False,True,False,False,False,False,True,False,False,False,False,False,2.812618971,1.265166283,1.259905815,1.113464594,1.170838356,1.348196268,1.407799482,1.406108618,1.194724321,1.244930029,1.355107546,1.267064333,1.391083241,1.43584013,1.207029104,1.907521009,1.138883829,1.154947042,1.318150997,1.649250269,Correct,Correct,Correct,Correct,Correct,Correct,Correct,Correct,Correct,Correct,Correct,Correct,Correct,Correct,Correct,Correct,Correct,Correct,Correct,Correct
131,1,M,exercise,29,15:52:36,False,True,False,False,False,False,False,False,False,False,True,False,False,True,False,False,False,False,False,False,2.345935106,1.820084572,3.144622087,3.330123901,2.130656004,1.826630354,3.766700506,2.529874086,1.567584515,2.137863398,1.612277031,1.642878771,1.634589672,2.10125351,1.700252533,1.788650513,1.8566401,2.574850559,1.271900177,1.612799883,Correct,Correct,Correct,Correct,Correct,Correct,Correct,Correct,Correct,Correct,Correct,Correct,Correct,Correct,Correct,Correct,Correct,Correct,Correct,Correct
131,2,M,exercise,29,16:02:31,False,False,True,False,True,False,False,True,False,True,True,False,True,False,False,True,False,False,False,False,2.063826561,1.865069628,1.339040995,2.093080044,1.412577629,1.731258631,1.478751183,1.91545558,1.553473949,1.3679986,1.39700985,2.840974808,1.213246822,1.190461397,2.047000408,1.323244333,1.626535416,1.611884594,1.331785917,1.530537605,Correct,Correct,Correct,Correct,Correct,Correct,Correct,Correct,Correct,Correct,Correct,Correct,Correct,Correct,Correct,Correct,Correct,Correct,Correct,Correct
132,1,M,control,28,16:30:54,False,False,False,False,True,False,False,True,False,False,False,False,True,False,False,False,False,True,False,False,3.610988617,1.671234846,1.797248602,1.181956768,1.189362764,2.468857527,1.352070332,1.405161381,1.122519255,1.455717564,1.529408693,2.276823044,1.507843256,2.446847916,1.152101994,1.085748434,1.35200882,1.944711685,1.885556459,1.551997423,Correct,Correct,Correct,Correct,Correct,Correct,Correct,Correct,Correct,Correct,Correct,Correct,Correct,Correct,Correct,Correct,Correct,Correct,Correct,Correct
132,2,M,control,28,16:37:40,True,False,False,False,False,False,False,False,False,False,False,False,False,False,False,False,False,False,False,False,1.618743658,1.441754103,2.641143322,1.98948884,1.804003716,1.899651766,1.455912828,1.255711079,2.151177645,1.514201641,2.622831345,1.839252472,1.551958084,1.587751865,1.634225845,1.307873964,2.298744202,1.86239171,2.462328434,1.500220537,Correct,Correct,Correct,Correct,Correct,Correct,Correct,Correct,Correct,Correct,Correct,Correct,Correct,Correct,Correct,Correct,Correct,Correct,Correct,Correct
133,1,M,exercise,23,10:29:05,False,False,False,False,False,False,True,False,True,True,False,False,False,False,False,False,False,False,True,False,1.79182148,1.136170626,2.126844883,1.572951317,1.298595667,1.550071716,1.503628969,1.601691008,1.970969439,1.342767715,1.427996159,1.507223606,1.521407366,1.866924047,1.727874517,1.321436882,2.53994441,2.667223454,1.314332724,1.381063938,Correct,Correct,Correct,Correct,Correct,Correct,Correct,Correct,Correct,Correct,Correct,Correct,Correct,Correct,Correct,Correct,Correct,Correct,Correct,Correct
134,1,M,control,25,10:33:21,True,False,False,False,False,False,False,False,False,False,False,False,False,False,False,True,False,False,False,False,1.193758011,1.806001425,1.482900858,1.393311262,1.749939442,1.219995737,1.43039155,1.159559965,1.356659889,1.12570262,1.278841734,1.127418518,1.638981581,2.205954313,1.497811079,1.524944067,1.415189266,1.609295607,1.262426853,1.525088549,Correct,Correct,Correct,Correct,Correct,Correct,Correct,Correct,Correct,Correct,Correct,Correct,Correct,Correct,Correct,Correct,Correct,Correct,Correct,Correct
133,2,M,exercise,23,10:40:48,False,False,True,False,False,False,False,False,True,False,False,False,False,False,True,True,False,False,True,True,2.773981094,1.43872261,1.528922796,1.298151016,1.742544651,1.417274714,1.157821655,1.099918127,1.025300503,1.424842596,2.007797956,1.505089521,1.705273628,1.44664216,1.683739662,1.675127268,1.513036013,1.498152256,1.579993725,1.24076128,Correct,Correct,Correct,Correct,Correct,Correct,Correct,Correct,Correct,Correct,Correct,Correct,Correct,Correct,Correct,Correct,Correct,Correct,Correct,Correct
134,2,M,control,25,10:42:18,True,False,False,False,False,False,False,False,False,False,True,True,False,False,True,True,True,True,False,False,2.113591433,2.038751364,1.846112967,1.885968447,1.224736691,1.210771322,1.202901125,0.950728655,1.047014952,1.055744648,1.674055815,1.348815918,1.623091221,1.461075783,1.187544346,1.313733101,1.325621367,0.965415001,1.75671196,1.579302549,Correct,Correct,Correct,Correct,Correct,Correct,Correct,Correct,Correct,Incorrect,Correct,Correct,Correct,Correct,Correct,Correct,Correct,Correct,Correct,Correct
135,1,F,exercise,24,12:34:40,False,True,True,False,False,True,False,False,False,True,False,False,True,False,False,False,True,False,False,True,1.051914692,1.255472898,1.266752243,1.609532118,1.911303043,1.087096453,1.663148165,1.194939613,1.121783257,1.143958807,1.388783455,1.558570385,1.302185535,0.996562719,1.079387665,1.011300564,1.710591555,1.145428181,1.247653246,0.893185854,Correct,Correct,Correct,Correct,Correct,Correct,Correct,Correct,Correct,Correct,Correct,Correct,Correct,Correct,Correct,Correct,Correct,Correct,Correct,Correct
136,1,F,exercise,23,12:37:54,False,True,False,False,True,False,False,False,False,False,False,False,True,False,False,False,False,False,False,False,1.674048662,1.623684168,1.475099802,1.195067167,1.246583223,1.903016806,1.283888817,1.326757193,1.977068663,1.377401114,1.422727346,1.445164442,1.134932041,1.65287137,1.681907892,1.851590395,1.112718344,1.202136278,1.319403648,1.644566536,Correct,Correct,Incorrect,Correct,Correct,Correct,Correct,Correct,Correct,Correct,Correct,Correct,Correct,Correct,Correct,Correct,Correct,Correct,Correct,Correct
135,2,F,exercise,24,12:41:55,False,False,False,False,True,False,False,False,True,True,False,False,False,False,False,True,False,False,False,False,1.545163631,1.704407454,1.17527771,0.88669467,0.841969967,1.448200464,1.107206106,1.026896715,1.35029459,0.995106697,1.190025806,1.128787041,1.220934868,1.243578434,0.898890257,0.816972017,1.549050808,1.414304972,1.519798994,1.170478344,Correct,Correct,Correct,Correct,Correct,Correct,Correct,Correct,Correct,Correct,Correct,Correct,Correct,Correct,Correct,Correct,Correct,Correct,Correct,Correct
136,2,F,exercise,23,12:47:17,True,False,True,False,False,True,False,False,True,False,True,False,False,False,True,False,False,False,False,False,1.79761982,1.674060106,1.356081247,1.629586697,1.874393463,1.299248457,2.243016958,1.402686834,1.84322691,1.659929752,1.253721476,1.793075323,1.327291965,1.585958481,1.224735975,1.076409101,1.556453705,1.112069607,1.238976717,1.297302008,Correct,Correct,Correct,Correct,Correct,Correct,Correct,Correct,Correct,Correct,Correct,Correct,Correct,Correct,Correct,Correct,Correct,Correct,Correct,Correct
137,1,M,exercise,22,12:50:29,True,False,True,False,False,False,False,False,False,False,False,True,True,True,False,True,False,False,True,False,2.586070299,1.670288801,1.879772663,4.030763865,2.122666121,2.681938171,1.476448536,4.51199007,2.0455513,2.023132563,3.54315567,3.347757101,1.325220108,2.274886131,1.696742773,2.745154858,3.524584293,2.231131792,2.288619757,2.096328974,Correct,Correct,Correct,Correct,Correct,Correct,Correct,Correct,Correct,Correct,Correct,Correct,Correct,Correct,Correct,Correct,Correct,Correct,Correct,Correct
137,2,M,exercise,22,12:58:47,False,False,False,False,False,False,False,True,False,False,False,False,False,True,False,True,False,False,False,True,1.691507578,2.150244236,1.567436695,1.276524544,1.255667925,1.205788136,2.804903507,2.519933224,2.434761524,1.860064507,1.312753916,3.446214199,2.41459322,2.448589325,2.116293192,2.502071619,2.061383247,2.082504034,1.054115057,1.244330645,Correct,Correct,Correct,Correct,Correct,Correct,Correct,Correct,Correct,Correct,Correct,Correct,Correct,Correct,Correct,Correct,Correct,Correct,Correct,Correct
138,1,M,exercise,26,13:57:02,False,False,True,False,True,False,True,True,False,False,False,False,True,False,False,False,False,True,False,False,1.92939043,2.853844404,2.38133359,1.664379835,2.462071657,2.246778488,1.482732773,1.863790512,1.539992332,2.203104973,1.914803743,1.818585634,1.311648607,1.596146584,1.973949432,1.857232332,1.341585875,1.585774422,1.592015266,1.739419699,Correct,Correct,Correct,Correct,Correct,Correct,Correct,Correct,Correct,Correct,Correct,Correct,Correct,Correct,Correct,Correct,Correct,Correct,Correct,Correct
138,2,M,exercise,26,14:04:29,False,True,True,False,True,False,False,True,True,True,False,False,False,False,False,False,False,False,True,False,2.433619738,1.466037273,1.266751766,1.860066652,1.879728317,1.585919142,1.629419565,1.268759966,1.917502403,1.688319445,1.435958624,1.620732546,2.883550406,2.264723778,1.702461481,1.385893822,1.78979969,1.575402498,1.473627567,1.634611368,Correct,Correct,Correct,Correct,Correct,Correct,Correct,Correct,Correct,Correct,Correct,Correct,Correct,Correct,Correct,Correct,Correct,Correct,Correct,Correct
139,1,M,exercise,23,15:05:44,False,False,False,True,False,False,False,False,False,False,False,False,False,False,True,False,False,False,False,False,2.376761198,1.366721153,1.710583925,1.961204052,2.04433322,1.432923079,2.046498537,1.175087452,1.77058363,1.403706312,1.335471392,1.32053113,1.342942476,1.297757149,1.365556717,1.525534153,1.113600254,1.194895983,1.948592901,0.921191216,Correct,Correct,Correct,Correct,Correct,Correct,Correct,Correct,Correct,Correct,Correct,Correct,Correct,Correct,Correct,Correct,Correct,Correct,Correct,Incorrect
139,2,M,exercise,23,15:12:59,False,False,False,False,False,False,False,True,False,False,False,False,False,False,False,True,False,False,False,False,1.457747698,1.213398933,1.351891756,0.967676401,1.228917122,1.003542423,1.277867317,1.137532473,1.645920515,1.174242735,1.375381708,1.131195784,2.675797224,1.55053854,1.395702839,1.160070181,1.809352875,1.174883842,1.606202602,0.913674116,Correct,Correct,Correct,Correct,Correct,Correct,Correct,Correct,Correct,Correct,Correct,Correct,Correct,Correct,Correct,Correct,Correct,Correct,Correct,Correct
140,1,M,exercise,22,15:49:02,False,True,True,True,False,False,False,False,False,False,False,True,False,True,True,False,False,False,False,True,2.044151306,1.851274729,1.066580057,1.574751616,1.496908426,1.458937168,1.906891108,2.536479473,1.769022942,1.394733429,1.475960016,1.260702133,1.244593859,1.72642827,3.422961712,1.896339417,1.600230455,1.446770668,1.265454054,1.584832668,Correct,Correct,Correct,Correct,Correct,Correct,Correct,Incorrect,Correct,Correct,Correct,Correct,Correct,Correct,Incorrect,Incorrect,Incorrect,Incorrect,Correct,Correct
140,2,M,exercise,22,15:56:21,False,False,True,False,False,False,False,False,True,False,False,False,False,True,False,False,False,False,False,False,2.131952047,1.237835407,1.128156185,1.299423933,1.978380442,1.416624546,1.232003689,1.23870635,2.10967803,1.298582077,1.682226419,2.052769184,1.542969942,1.371336699,1.727426767,2.080193758,2.108055115,1.402175903,1.998996735,2.625193834,Correct,Correct,Correct,Correct,Correct,Correct,Correct,Correct,Correct,Correct,Correct,Correct,Correct,Correct,Correct,Correct,Correct,Correct,Correct,Correct
141,1,M,control,29,19:13:51,False,True,False,True,False,False,False,False,False,False,False,False,False,False,False,False,False,False,False,False,1.387214661,1.671392202,1.351103783,2.085902452,1.564873934,1.085716963,1.17925024,1.108329058,1.518032074,1.031079054,1.542144775,1.437022448,0.926678419,1.785706758,1.289721966,1.04653573,1.01811409,1.772298098,1.66047883,1.105602503,Correct,Correct,Correct,Correct,Correct,Correct,Correct,Correct,Correct,Correct,Correct,Correct,Correct,Correct,Correct,Correct,Correct,Correct,Correct,Correct
142,1,M,control,23,19:16:31,False,True,False,False,True,False,True,False,False,False,False,True,True,False,False,False,True,False,False,True,2.588091612,3.066646338,2.09389329,4.256898642,1.785680532,3.52532959,3.370976686,2.470966339,4.699495792,2.154473305,2.24998951,1.244411469,2.855405092,1.917906284,3.718693972,1.354735851,1.535122871,1.816311359,3.80715251,1.214805365,Correct,Correct,Correct,Correct,Correct,Correct,Correct,Correct,Correct,Correct,Correct,Correct,Correct,Correct,Correct,Incorrect,Correct,Incorrect,Correct,Correct
141,2,M,control,29,19:24:14,False,False,False,True,False,False,False,False,False,True,False,True,False,False,True,False,False,False,True,False,1.893517017,1.011076212,1.129563332,2.095743895,1.438955069,0.891742229,1.482775927,0.90640974,1.556993246,0.989756107,1.393446684,1.622610331,1.314065218,0.929354429,0.924240351,1.113885641,1.07686162,1.622820854,1.643174648,1.526383877,Correct,Correct,Correct,Correct,Correct,Correct,Correct,Correct,Correct,Correct,Correct,Correct,Correct,Correct,Correct,Correct,Correct,Correct,Correct,Correct
142,2,M,control,23,19:26:54,False,False,False,False,False,False,False,False,False,False,False,False,False,False,True,False,False,False,False,False,2.972050667,2.5896492,2.966923475,2.487091064,3.865587234,2.767873287,2.612084389,2.20620203,2.278483629,2.220787287,2.722563267,1.814505816,2.816167593,2.855145693,2.225667953,1.866064072,3.984005451,2.530160427,2.567968369,1.754454613,Correct,Correct,Incorrect,Correct,Correct,Correct,Correct,Correct,Correct,Correct,Correct,Correct,Correct,Correct,Correct,Correct,Incorrect,Incorrect,Correct,Correct
143,1,F,control,27,20:21:16,False,False,False,False,False,False,False,False,False,False,False,False,False,False,True,False,True,False,False,False,1.669685364,2.003852129,1.783708096,1.504592657,1.497476339,2.168224573,1.113812447,1.340449572,1.938501835,1.697350264,1.202818155,1.668348312,1.483388901,2.227735281,1.238795996,1.43162775,1.310515881,1.363548756,1.202649593,2.034934521,Correct,Correct,Correct,Correct,Correct,Correct,Correct,Correct,Correct,Correct,Correct,Correct,Correct,Correct,Correct,Correct,Correct,Correct,Correct,Correct
143,2,F,control,27,20:26:34,False,False,True,True,False,True,False,False,False,False,False,False,True,True,False,False,False,False,False,False,1.125482082,1.778707027,1.614582777,1.245213747,1.208334446,1.563750505,1.984579086,2.640444756,1.238099337,1.859003305,1.23761034,1.2165308,1.149119377,1.932245493,1.790767908,2.18821454,1.332899809,1.31905055,1.614521742,2.160646915,Correct,Correct,Correct,Correct,Correct,Correct,Correct,Correct,Correct,Correct,Correct,Correct,Correct,Correct,Correct,Correct,Correct,Correct,Correct,Correct
144,1,F,control,29,21:24:26,False,False,False,False,False,False,False,False,False,False,False,True,False,False,False,False,False,False,False,False,1.687436342,3.109424591,1.85925746,1.838281393,2.08516407,1.59075141,1.428946257,1.725524664,1.061306477,1.676195621,1.356037378,1.073400259,1.248018742,1.769659042,1.146533012,1.576830149,0.873535872,1.303056717,1.383042097,1.072405815,Correct,Correct,Correct,Correct,Correct,Correct,Correct,Correct,Correct,Correct,Correct,Correct,Correct,Correct,Correct,Correct,Correct,Correct,Correct,Correct
144,2,F,control,29,21:29:52,False,False,False,False,False,False,True,False,False,False,False,False,False,False,False,False,True,True,False,False,1.51913619,1.192060709,1.246224165,1.35179472,1.085508108,1.699743032,1.698263407,1.566964388,0.978093863,1.188360691,1.127776146,2.023293018,1.535168886,1.448168755,1.048734188,0.926771879,1.300417662,1.715387821,1.444799662,1.221637011,Correct,Correct,Correct,Correct,Correct,Correct,Correct,Correct,Correct,Correct,Correct,Correct,Correct,Correct,Correct,Correct,Correct,Correct,Correct,Correct
50,1,M,exercise,24,09:52:16,False,False,False,False,False,False,False,False,True,False,False,False,False,True,True,False,False,False,False,False,1.397763729,0.940419912,1.616384506,0.828005314,1.356147289,1.004341125,1.278223515,1.354931593,1.414642334,1.598649502,0.948654413,1.753626585,1.690371513,1.203631163,1.364842892,1.36309123,2.910728931,1.008437157,1.04865694,0.843933344,Correct,Correct,Correct,Correct,Correct,Correct,Correct,Correct,Correct,Correct,Correct,Correct,Correct,Correct,Correct,Correct,Correct,Correct,Correct,Correct
50,2,M,exercise,24,10:02:09,False,True,False,False,False,False,False,False,False,True,False,True,False,False,False,False,False,False,True,False,2.253889799,1.321959972,2.322122812,0.932182789,0.905943632,2.216025352,0.818357944,1.881310225,1.25718379,0.900494814,0.932835817,0.984189987,1.2240417,1.168567419,0.806217432,1.113254786,1.346363068,1.578219414,2.288681984,1.240413666,Correct,Correct,Correct,Correct,Correct,Correct,Correct,Correct,Correct,Correct,Correct,Correct,Correct,Correct,Correct,Correct,Incorrect,Correct,Correct,Correct
51,1,F,exercise,25,10:11:04,True,False,False,False,False,False,True,False,True,False,False,False,False,True,False,False,False,False,True,False,2.008411169,1.902970552,1.95321846,2.155068636,1.915935755,2.58963728,2.259503841,1.874275923,1.872977018,1.773428679,3.010242939,1.986763716,1.326373577,2.001786232,2.081938028,1.658226013,1.730584145,1.563118696,1.706073761,1.355524778,Correct,Correct,Correct,Correct,Correct,Correct,Correct,Correct,Correct,Correct,Correct,Correct,Correct,Correct,Correct,Correct,Correct,Correct,Correct,Correct
51,2,F,exercise,25,10:18:41,False,False,False,False,False,True,False,False,False,False,True,False,False,False,True,False,False,False,True,False,2.917724848,1.824262381,1.946453333,1.925584793,1.870842695,2.020842314,1.508607626,2.347046137,1.840649843,2.938884497,1.645047188,1.877984762,1.376420021,1.808087349,1.605067492,1.611777544,2.415316343,1.346056461,1.651876926,1.368914604,Correct,Correct,Correct,Correct,Correct,Correct,Correct,Correct,Correct,Correct,Correct,Correct,Correct,Correct,Correct,Correct,Correct,Correct,Correct,Correct
52,1,M,exercise,26,10:00:29,False,False,False,False,False,False,False,True,False,False,False,False,False,False,False,False,False,False,False,False,2.190585375,2.762190104,1.539300203,1.445669413,3.072317839,2.668694496,1.972813845,2.11841464,2.52505374,2.393092394,2.090001106,2.394859791,2.480538368,1.93664813,2.783213854,2.278055429,3.184337378,1.856873989,2.313592672,1.568730831,Correct,Correct,Correct,Correct,Correct,Correct,Correct,Correct,Correct,Correct,Correct,Correct,Correct,Correct,Correct,Correct,Correct,Correct,Correct,Correct
52,2,M,exercise,26,10:09:33,False,True,False,False,False,True,False,False,False,False,True,False,False,True,False,True,False,False,True,True,2.553454161,1.611126661,2.228664875,1.60725832,2.49542737,1.278224945,2.372674227,3.154366255,1.924326897,1.352022409,1.997920275,1.984166861,2.967134953,1.482049465,2.453430176,1.563412905,1.952780247,1.772459507,1.628129482,1.431768179,Correct,Correct,Correct,Correct,Correct,Correct,Correct,Correct,Correct,Correct,Correct,Correct,Correct,Correct,Correct,Correct,Correct,Correct,Correct,Correct
53,1,M,exercise,25,10:14:33,False,False,False,False,False,True,False,True,False,False,True,False,False,True,False,True,False,True,False,False,1.199172497,1.27815938,1.34999752,1.338485003,1.394766808,1.104038954,1.381590128,1.301923275,1.538366079,1.335261345,1.234052181,1.185820103,1.394777536,1.286133766,1.079144478,1.345615864,1.719580412,1.564061403,1.352655888,1.18428421,Correct,Correct,Correct,Correct,Correct,Correct,Correct,Correct,Correct,Correct,Correct,Correct,Correct,Correct,Correct,Correct,Correct,Correct,Correct,Correct
53,2,M,exercise,25,10:23:48,False,False,True,False,False,False,False,False,True,True,False,False,False,False,False,False,False,False,False,False,1.495807648,1.372232914,1.186450958,1.314636469,1.60324502,1.619820356,1.591320276,1.583537817,1.003190279,1.34430933,1.185744047,1.538555622,1.495454788,1.05320096,1.192432642,1.320719719,1.105790377,1.330538034,1.474242687,1.366991758,Correct,Correct,Correct,Correct,Correct,Correct,Correct,Correct,Correct,Correct,Correct,Correct,Correct,Correct,Correct,Correct,Correct,Correct,Correct,Correct
54,1,M,exercise,25,10:29:44,False,False,True,False,True,False,False,False,False,False,True,True,False,False,False,False,True,False,True,False,1.08171916,1.239017963,1.272426128,0.830119133,1.167346954,1.024117708,0.913855553,1.13032937,0.96396184,1.201956749,1.092535734,0.898597479,0.883903742,1.504380941,2.003295898,1.078234434,0.954239607,1.437542439,1.076904058,1.01411891,Correct,Correct,Correct,Correct,Correct,Correct,Incorrect,Correct,Correct,Correct,Correct,Correct,Correct,Correct,Correct,Correct,Correct,Correct,Correct,Correct
54,2,M,exercise,25,10:37:55,False,True,False,False,False,True,False,False,False,False,False,True,False,False,False,False,False,False,True,False,1.270102978,0.983762026,1.389380455,1.066253662,1.446577072,1.499709845,0.912001133,0.918256283,0.904521227,0.964592218,1.028222084,1.419706106,1.352633476,1.507101774,0.950767994,0.947380781,0.986679316,1.804294825,0.899938822,0.841714144,Correct,Correct,Correct,Correct,Correct,Correct,Correct,Correct,Correct,Correct,Correct,Correct,Correct,Correct,Correct,Correct,Correct,Correct,Correct,Correct
55,1,F,exercise,18,12:16:22,False,False,False,False,False,False,False,False,False,False,False,False,False,False,False,False,False,False,False,False,2.487668753,2.555342197,1.286813259,1.337089062,1.786764622,1.649356604,1.6410923,1.396356344,2.777493954,1.627296209,2.330590963,1.743414402,1.582880735,1.685307503,2.083330154,1.439140081,1.194164991,1.931029558,1.910276413,1.124800444,Correct,Correct,Correct,Correct,Correct,Correct,Correct,Correct,Correct,Correct,Correct,Correct,Correct,Correct,Correct,Correct,Correct,Correct,Correct,Correct
55,2,F,exercise,18,12:25:30,True,False,False,True,False,False,True,False,True,False,False,False,False,False,True,False,False,False,True,False,1.915223122,1.155696392,1.526705265,1.279608488,1.070210218,1.224561453,1.880213499,1.135196924,1.251562119,1.460324526,1.173344374,1.438523054,2.133895397,1.306913614,1.143222332,1.634997368,1.800591946,1.895146132,1.373568058,1.988329649,Correct,Correct,Correct,Correct,Correct,Correct,Correct,Correct,Correct,Correct,Correct,Correct,Correct,Correct,Correct,Correct,Correct,Correct,Correct,Correct
56,1,M,control,24,14:33:08,False,False,True,False,False,False,False,False,False,False,False,False,True,True,False,False,False,False,False,False,1.1183443069458008,1.4710912704467773,1.5249309539794922,1.4247548580169678,2.075364112854004,1.7939600944519043,1.3166725635528564,1.1426465511322021,1.279987096786499,1.2798221111297607,1.3375072479248047,1.511983871459961,1.0992298126220703,1.127626657485962,1.2723774909973145,1.158674955368042,1.1490576267242432,1.330848217010498,1.1855108737945557,1.5018963813781738,Correct,Correct,Correct,Correct,Correct,Correct,Correct,Correct,Correct,Correct,Correct,Correct,Correct,Correct,Correct,Correct,Correct,Correct,Correct,Correct
56,2,M,control,24,14:40:19,False,False,False,False,False,False,False,False,False,False,False,False,False,False,True,False,False,True,False,False,1.083038091659546,1.3083117008209229,1.177586555480957,1.678379774093628,1.3521313667297363,1.1775739192962646,0.7949836254119873,1.3374652862548828,0.9889578819274902,1.3442835807800293,1.0196335315704346,1.4320776462554932,1.1999592781066895,2.022986888885498,1.3014864921569824,1.4689126014709473,1.989412784576416,0.9320471286773682,1.1781275272369385,1.2146506309509277,Correct,Correct,Correct,Correct,Correct,Correct,Correct,Correct,Correct,Correct,Correct,Correct,Correct,Correct,Correct,Correct,Correct,Correct,Correct,Correct
