,id,trial,gender,group,age,time,trial_type1,trial_type2,trial_type3,trial_type4,trial_type5,trial_type6,trial_type7,trial_type8,trial_type9,trial_type10,trial_type11,trial_type12,trial_type13,trial_type14,trial_type15,trial_type16,trial_type17,trial_type18,trial_type19,trial_type20,rt1,rt2,rt3,rt4,rt5,rt6,rt7,rt8,rt9,rt10,rt11,rt12,rt13,rt14,rt15,rt16,rt17,rt18,rt19,rt20,accuracy1,accuracy2,accuracy3,accuracy4,accuracy5,accuracy6,accuracy7,accuracy8,accuracy9,accuracy10,accuracy11,accuracy12,accuracy13,accuracy14,accuracy15,accuracy16,accuracy17,accuracy18,accuracy19,accuracy20,avg_incongruent,avg_congruent,acc_incongruent,acc_congruent
0,1,1,M,exercise,29,09:33:36,False,True,False,False,True,False,False,False,True,False,False,False,True,True,True,False,False,False,True,True,1.78881393432617,1.46000705718994,1.13027416229248,1.02804599761963,1.59313498497009,1.42056809425354,1.70380102157593,1.68704615592957,0.870329961776733,1.4277502155304,1.64044891357422,1.10621295928955,1.13717900276184,1.41271005630493,1.38105832099915,1.28692589759827,1.53877697944641,2.02506505012512,1.27167712211609,1.21568404197693,Correct,Correct,Correct,Correct,Correct,Correct,Correct,Correct,Correct,Correct,Correct,Correct,Correct,Correct,Correct,Correct,Correct,Correct,Correct,Correct,1.481977448463441,1.2927225685119628,0.6,0.4
1,1,2,M,exercise,29,09:43:55,True,False,True,True,True,True,False,True,True,True,True,True,True,False,False,True,False,True,True,False,0.947346792221069,1.52967105865479,1.2244380569458,0.996191129684448,0.980452880859375,1.06677804946899,1.41276107788086,1.10650001525879,0.854971036911011,1.16954790115356,1.23953925132751,0.753677949905396,1.22419272422791,1.62491498947144,1.29472504615784,1.20063482284546,1.57002101898193,1.24805294036865,1.01186285972595,1.72737895011902,Correct,Correct,Correct,Correct,Correct,Correct,Correct,Correct,Correct,Correct,Correct,Correct,Correct,Correct,Correct,Correct,Correct,Correct,Correct,Correct,1.52657869021098,1.073156172207423,0.3,0.7
2,2,1,M,exercise,29,08:04:14,False,False,True,False,True,True,True,True,False,False,True,True,True,True,True,True,True,True,True,True,1.7655027961731,2.03351102828979,0.917996034622192,1.46095119476318,1.06737814903259,1.13789616584778,1.16900311470032,1.01905404090881,1.93133197784424,1.17747388839722,1.04355298042297,1.10666309356689,1.23267088890076,0.988381013870239,0.902865991592407,0.894379243850708,0.894204006195068,1.27200685501099,0.89425407409668,1.28628002166748,Correct,Correct,Correct,Correct,Correct,Correct,Correct,Correct,Correct,Correct,Correct,Correct,Correct,Correct,Correct,Correct,Correct,Correct,Correct,Correct,1.673754177093506,1.0551057116190588,0.25,0.75
3,2,2,M,exercise,29,08:12:49,True,False,False,True,False,True,True,False,False,True,False,True,True,False,True,False,False,True,True,False,1.23193202972412,1.12380920410156,1.05203400611877,1.31051717758179,0.933567867279053,0.925524101257324,0.917737112045288,1.36620603561401,1.05894194602966,0.776518926620483,1.07503233909607,0.736932859420776,0.767784223556519,0.948407754898071,0.697710380554199,0.863051996231079,0.941329107284546,0.690240726470947,0.76038800239563,0.736837015151978,Correct,Correct,Correct,Correct,Correct,Correct,Correct,Correct,Correct,Correct,Correct,Correct,Correct,Correct,Correct,Correct,Correct,Correct,Correct,Correct,1.00992172718048,0.8815285539627075,0.5,0.5
4,3,1,F,exercise,24,09:19:54,False,True,False,True,False,False,False,False,False,False,False,False,False,False,False,False,False,False,False,False,1.59276782035828,1.11345206260681,1.1682582950592,1.16912399291992,1.05900417327881,1.79007779121399,1.73500405311584,1.16121302604675,1.45975576400757,1.40454398155212,1.14502297401428,1.27076612472534,1.20065723419189,0.94141016960144,1.81424604415894,1.42132102012634,1.22445593833923,0.996935949325562,1.91659461021423,1.52358017921448,Correct,Correct,Correct,Correct,Correct,Correct,Correct,Correct,Correct,Correct,Correct,Correct,Correct,Correct,Correct,Correct,Correct,Correct,Correct,Correct,1.3792008415857941,1.141288027763365,0.9,0.1
5,3,2,F,exercise,24,09:28:43,False,False,False,True,False,False,False,False,False,False,True,False,False,True,True,False,False,True,False,False,1.28650485038757,0.792503223419189,1.0518568611145,1.08316980361938,1.65704713821411,1.20904384613037,1.37392602920532,1.15424810409546,1.14595876693726,1.04417096138,1.27202998161316,1.66475306510925,0.887039051055908,1.12257967948914,0.933982715606689,1.36615382194519,0.981113061904907,0.760986909866333,1.34306322097778,0.965321645736694,Correct,Correct,Correct,Correct,Correct,Correct,Correct,Correct,Correct,Correct,Correct,Correct,Correct,Correct,Correct,Correct,Correct,Correct,Correct,Correct,1.1948469098409007,1.0345498180389405,0.75,0.25
6,4,1,F,exercise,26,09:35:05,False,True,False,False,False,False,True,False,False,False,False,True,False,False,False,False,True,False,False,False,1.05746279716492,1.04281698226929,1.6339589214325,1.22433029174805,1.86074982643127,1.22374974250793,1.06685029029846,1.44389806747437,1.0355530834198,1.43679200172424,1.16121183395386,1.15382514953613,1.11404667854309,1.16129790306091,1.79016314506531,1.01967988967896,1.05143414497375,0.972820148468018,1.37338291168213,1.21604095458984,Correct,Correct,Correct,Correct,Correct,Correct,Correct,Correct,Correct,Correct,Correct,Correct,Correct,Correct,Correct,Correct,Correct,Correct,Correct,Correct,1.2953211373090747,1.0787316417694075,0.8,0.2
7,4,2,F,exercise,26,09:43:12,True,True,True,False,False,False,False,False,True,False,False,False,False,True,False,False,False,False,True,False,1.19124899864197,0.963017091751099,1.08969269752502,1.2548380947113,0.980568037033081,1.23992310523987,1.4522122001648,2.0258399105072,1.01997910499573,1.31076704025269,0.902140960693359,1.38143311500549,1.81432996749878,0.933158025741577,1.79853497505188,1.38079510688782,1.02780304908752,1.06743179321289,0.989595041275024,0.933208332061768,Correct,Correct,Correct,Correct,Correct,Correct,Correct,Correct,Correct,Correct,Correct,Correct,Correct,Correct,Correct,Correct,Correct,Correct,Correct,Correct,1.3264161205291747,1.0311151599884034,0.7,0.3
8,5,1,F,exercise,25,10:16:02,True,False,False,False,False,False,True,False,True,False,False,False,False,False,True,False,False,False,False,False,1.31789194107056,1.1903849697113,1.23976384162903,1.30232797622681,0.972712860107422,1.21570073127747,1.51522599220276,1.18463312149048,1.21648798942566,1.78211890220642,1.06683789253235,2.30868588447571,1.57062731742859,1.31917797088623,0.972612962722778,1.10621605873108,2.29364191055298,1.1383420085907,1.00372301101685,3.93456302642822,Correct,Correct,Correct,Correct,Correct,Correct,Correct,Correct,Correct,Correct,Correct,Correct,Correct,Correct,Correct,Correct,Correct,Correct,Correct,Correct,1.5393410927057278,1.2555547213554394,0.8,0.2
9,5,2,F,exercise,25,10:24:22,False,True,False,False,True,False,True,True,False,True,False,False,False,False,True,False,False,False,False,True,1.23065720558167,1.39734183311462,1.43539415359497,1.38908396720886,1.07509480476379,1.22476802825928,1.30288110733032,0.988918170928955,1.27998696327209,0.987968072891235,1.45935617446899,1.4910350894928,0.933988914489746,1.66471587181091,1.12283311843872,1.570284948349,0.973461256027222,0.926262245178223,1.13785181999207,1.66838084220886,Correct,Correct,Correct,Correct,Correct,Correct,Correct,Correct,Correct,Correct,Correct,Correct,Correct,Correct,Correct,Correct,Correct,Correct,Incorrect,Correct,1.2982495681444801,1.2204882785252142,0.6,0.35
10,6,1,M,exercise,29,10:29:44,False,False,True,False,False,False,False,False,False,False,False,False,False,False,True,True,False,False,False,False,1.69460211753845,1.83726202011108,1.38133417129517,1.176734790802,1.09055124282837,1.16108714103699,1.08279810905457,1.66420279502869,1.25530205726624,1.01200901031494,1.2235311126709,1.26311098098755,0.850550994873047,1.42009531021118,1.06730209350586,0.893746004104614,1.49102579116821,0.886248931884766,1.15297399520874,2.00186692237854,Correct,Correct,Correct,Correct,Correct,Correct,Correct,Correct,Correct,Correct,Correct,Correct,Correct,Correct,Correct,Correct,Correct,Correct,Correct,Correct,1.3096443131390743,1.114127422968548,0.85,0.15
11,6,2,M,exercise,29,10:38:16,False,False,False,False,False,False,False,False,False,False,False,False,False,False,False,False,False,False,False,False,1.80384789466858,1.15474782943726,1.15382491111755,1.44423209190369,1.16092477798462,1.60833297729492,1.04337488174438,1.04313694000244,2.08917795181274,1.27119909286499,1.45187293052673,1.08264885902405,1.35743103981018,1.41244922637939,1.02769289970398,2.45780693054199,1.0590339756012,1.48335300445557,1.14524684906006,1.55385099411011,Correct,Correct,Correct,Correct,Correct,Correct,Correct,Correct,Correct,Correct,Correct,Correct,Correct,Correct,Correct,Correct,Correct,Correct,Correct,Correct,1.3902093029022216,,1.0,0.0
12,7,1,M,exercise,29,19:40:45,False,False,False,False,False,False,True,False,True,False,False,True,True,False,False,False,False,True,False,False,1.42730508804321,1.64805375099182,1.34965501785278,1.50639806747437,2.3080242729187,1.41202794075012,1.65591107368469,1.1527520275116,1.27902589797974,1.71823488235474,1.53920899391174,1.44407211303711,1.34184990882874,1.3029349899292,1.03531180381775,1.56244908332825,1.3418708896637,1.38882981300354,1.79011379241943,1.6642688369751,Correct,Correct,Correct,Correct,Correct,Correct,Correct,Correct,Correct,Correct,Correct,Correct,Correct,Correct,Correct,Correct,Correct,Correct,Correct,Correct,1.5172406291961673,1.4219377613067639,0.75,0.25
13,7,2,M,exercise,29,19:50:02,True,False,True,False,True,False,False,False,False,False,False,False,False,False,True,True,False,True,False,True,0.962978229522705,1.0350328540802,1.49157796859741,1.05052886962891,0.877952919006348,1.23918615341187,1.34917388916016,1.19219695091248,1.14503179550171,0.909277067184448,1.32540522575378,1.36519299507141,1.27838598251343,1.05865393638611,1.24005304336548,0.869667873382568,1.3961750125885,1.23971019744873,1.01142059326172,2.14234601020813,Correct,Correct,Correct,Correct,Correct,Correct,Correct,Correct,Correct,Correct,Correct,Correct,Correct,Correct,Correct,Correct,Correct,Correct,Correct,Correct,1.1812047173426714,1.2606123202187673,0.65,0.35
14,8,1,M,exercise,26,12:26:48,False,False,False,True,False,False,False,False,False,False,False,False,False,True,False,False,False,False,False,False,1.63890480995178,1.0344021320343,1.19924116134644,1.22264313697815,2.90449786186218,0.82289981842041,1.56097292900085,1.38815093040466,1.17701578140259,1.44355988502502,1.3967878818512,1.63240003585815,1.65538883209229,0.808223962783814,1.42059111595154,1.0197811126709,0.941367149353027,1.9780330657959,2.0341169834137,1.78979206085205,Correct,Correct,Correct,Correct,Correct,Incorrect,Correct,Correct,Correct,Correct,Correct,Correct,Correct,Correct,Correct,Correct,Incorrect,Correct,Correct,Correct,1.5796022862195969,1.0154335498809821,0.8,0.1
15,8,2,M,exercise,26,12:35:08,False,False,False,False,False,False,True,False,False,False,False,False,True,False,False,False,False,False,False,True,2.04850268363953,1.81346201896667,0.941027879714966,1.59354686737061,1.53070998191834,1.64085698127747,1.35767889022827,1.24780201911926,1.20083808898926,0.83112907409668,1.59365510940552,1.34967303276062,1.3659770488739,1.5312237739563,1.46859121322632,1.34909009933472,0.878420352935791,1.66419100761414,0.830701112747192,1.09056711196899,Correct,Correct,Correct,Correct,Correct,Correct,Correct,Correct,Correct,Correct,Correct,Correct,Correct,Correct,Correct,Correct,Correct,Correct,Incorrect,Correct,1.4176700115203873,1.2714076836903867,0.8,0.15
16,9,1,F,control,21,12:39:45,False,True,False,True,False,False,False,False,False,False,False,False,False,False,True,False,False,False,False,False,1.27847909927368,1.00321388244629,1.55317616462708,1.47537207603455,1.56183886528015,1.73366498947144,1.2871470451355,0.92417311668396,1.03561496734619,1.17567420005798,1.45098185539246,1.00329089164734,1.42725110054016,1.45950317382813,1.12959313392639,1.45227026939392,0.996015071868897,1.27154874801636,1.08180904388428,1.07458782196045,Correct,Correct,Correct,Correct,Correct,Correct,Correct,Correct,Correct,Correct,Incorrect,Correct,Correct,Correct,Correct,Correct,Incorrect,Correct,Correct,Incorrect,1.3032458339418693,1.2027263641357433,0.7,0.15
17,9,2,F,control,21,12:47:53,False,True,False,False,False,False,True,False,False,True,False,False,False,False,True,False,True,False,False,False,1.12106013298035,2.41786289215088,0.941387176513672,2.5360381603241,2.64574384689331,1.33300495147705,1.0584020614624,1.50698637962341,1.17662692070007,1.41989898681641,1.01032495498657,2.71673107147217,1.12849307060242,1.25511908531189,0.853938102722168,1.36568975448608,1.23917412757874,0.979768753051758,0.775471925735474,1.46667289733887,Correct,Correct,Incorrect,Correct,Correct,Correct,Correct,Incorrect,Correct,Correct,Correct,Correct,Correct,Incorrect,Correct,Correct,Correct,Correct,Incorrect,Correct,1.5891049558466137,1.3978552341461195,0.55,0.25
18,10,1,F,exercise,24,12:51:19,False,False,False,False,False,False,False,False,True,False,False,False,False,False,False,False,False,True,False,False,1.28411912918091,1.36495113372803,1.03483295440674,0.979528903961182,1.49785900115967,1.49059629440308,1.56126832962036,1.51502108573914,0.963673114776611,1.2228889465332,1.33315491676331,1.51403784751892,1.0112361907959,1.39724111557007,1.34920287132263,1.12932300567627,1.3727068901062,1.38835716247559,1.34816193580627,1.30241513252258,Correct,Correct,Correct,Correct,Correct,Correct,Correct,Correct,Correct,Correct,Correct,Correct,Correct,Correct,Correct,Correct,Correct,Correct,Correct,Correct,1.3171414269341366,1.1760151386261004,0.9,0.1
19,10,2,F,exercise,24,12:59:53,False,False,False,False,False,False,False,False,False,False,False,False,False,False,True,False,False,False,False,False,1.51211023330688,1.19182014465332,0.979038000106812,1.12928891181946,1.3961877822876,1.22368979454041,1.21567893028259,1.0270688533783,1.03435707092285,1.04335188865662,1.37252998352051,0.979843854904175,1.03489303588867,1.14662337303162,1.51383590698242,1.08153820037842,1.3825569152832,0.901654005050659,1.14445018768311,1.15314102172852,Correct,Correct,Correct,Correct,Correct,Correct,Correct,Correct,Correct,Correct,Correct,Correct,Correct,Correct,Correct,Correct,Correct,Correct,Correct,Correct,1.155253799338091,1.51383590698242,0.95,0.05
20,11,1,M,control,29,09:13:54,False,False,False,False,False,False,False,False,False,True,True,False,False,True,False,False,False,False,False,False,1.87511706352234,1.05057001113892,1.12126398086548,1.73443603515625,1.8921070098877,1.17657399177551,1.31870603561401,1.23184609413147,1.31007504463196,1.78151917457581,1.31815981864929,1.11454296112061,1.49866700172424,1.38155317306519,0.910001754760742,1.12140798568726,2.12716007232666,1.19224214553833,1.68745756149292,1.07431602478027,Correct,Correct,Correct,Correct,Correct,Correct,Correct,Correct,Correct,Correct,Correct,Correct,Correct,Correct,Correct,Correct,Correct,Correct,Correct,Correct,1.3786171043620397,1.4937440554300967,0.85,0.15
21,11,2,M,control,29,09:20:30,False,True,False,True,True,True,True,False,True,False,False,False,False,False,False,False,False,False,False,False,1.39537215232849,1.90487599372864,1.51459097862244,1.41903471946716,1.92287635803223,1.05075931549072,1.18469190597534,0.987874031066895,1.18396711349487,1.19192099571228,1.30295491218567,1.33381915092468,1.066978931427,1.0030198097229,0.964004755020142,1.44346690177917,1.11397814750671,1.45114707946777,0.869925260543823,1.79674196243286,Correct,Correct,Correct,Correct,Correct,Correct,Correct,Correct,Correct,Correct,Correct,Correct,Correct,Correct,Correct,Correct,Correct,Correct,Correct,Correct,1.245413933481488,1.44436756769816,0.7,0.3
22,12,1,M,control,22,12:24:27,False,False,False,False,False,False,False,False,False,False,False,False,False,False,False,False,False,True,True,True,3.80884575843811,1.44198393821716,1.64734530448914,1.98619985580444,1.33330202102661,1.23808193206787,1.49052691459656,1.73378705978394,2.03269696235657,2.65363383293152,1.90760183334351,1.54560112953186,1.36430811882019,1.44293308258057,1.92249298095703,0.925474882125855,1.23878908157349,0.971734762191772,1.49845719337463,1.23919010162354,Incorrect,Correct,Correct,Correct,Correct,Correct,Correct,Correct,Correct,Correct,Correct,Correct,Correct,Correct,Correct,Correct,Correct,Correct,Correct,Correct,1.6190474331378946,1.2364606857299807,0.8,0.15
23,12,2,M,control,22,12:32:44,False,False,False,True,False,True,False,False,False,True,True,False,False,False,False,False,False,False,False,False,2.16612505912781,1.23102903366089,1.27824711799622,1.01121497154236,1.01847624778748,1.2068989276886,1.4352560043335,1.30907511711121,1.19134283065796,1.56198620796204,1.39569997787476,1.08981704711914,0.94936203956604,1.41923403739929,1.01889991760254,1.43566608428955,1.08246779441834,1.05039119720459,1.24689102172852,1.64829015731812,Correct,Correct,Correct,Correct,Correct,Correct,Correct,Correct,Correct,Correct,Correct,Correct,Correct,Correct,Correct,Correct,Correct,Correct,Correct,Correct,1.285660669207575,1.29395002126694,0.8,0.2
24,13,1,M,control,23,12:53:36,False,True,False,False,False,True,False,False,False,False,False,False,False,False,False,False,False,False,False,False,1.16147589683533,2.79512500762939,1.66390013694763,1.27849411964417,1.47490501403809,1.23160982131958,1.27056813240051,1.83678817749023,1.25548791885376,1.29531311988831,1.50627207756042,1.52253198623657,1.23934626579285,1.28595900535584,1.30262589454651,0.971919059753418,1.22351098060608,0.932790994644165,1.0423002243042,1.39665365219116,Correct,Correct,Correct,Correct,Correct,Correct,Correct,Correct,Correct,Correct,Correct,Correct,Correct,Correct,Correct,Correct,Correct,Correct,Correct,Correct,1.31449125872718,2.013367414474485,0.9,0.1
25,13,2,M,control,23,12:56:00,False,False,True,False,False,False,False,False,False,False,False,False,False,True,False,False,False,False,False,True,1.27752804756165,1.75041913986206,1.38038301467896,0.925088167190552,1.8677830696106,1.49145483970642,0.956141710281372,1.05088996887207,1.16105318069458,1.12105798721313,1.16860961914063,1.43616008758545,1.08938503265381,0.979779005050659,0.940022945404053,1.17657113075256,1.16019725799561,1.33338093757629,0.979014158248901,1.20833086967468,Correct,Correct,Correct,Correct,Correct,Correct,Correct,Correct,Correct,Correct,Correct,Correct,Correct,Correct,Correct,Correct,Correct,Correct,Correct,Correct,1.2285151341382199,1.1894976298014328,0.85,0.15
26,31,1,M,control,26,10:01:03,False,False,False,True,False,True,True,False,False,False,False,False,False,False,True,True,False,False,True,False,1.941048861,2.111069679,1.794070005,1.565849781,1.767048359,1.314768553,0.97497654,2.038526297,1.50721693,1.299113274,1.520154715,1.823907614,1.484370708,1.040594816,1.330091476,0.891905546,1.978683949,1.024142027,1.144704819,1.550774097,Correct,Correct,Correct,Correct,Correct,Correct,Correct,Correct,Correct,Correct,Correct,Correct,Correct,Correct,Correct,Correct,Correct,Correct,Correct,Correct,1.6343372379285714,1.2037161191666668,0.7,0.3
27,31,2,M,control,26,10:07:16,False,False,False,False,False,False,False,False,False,False,False,False,False,True,False,False,False,False,False,False,1.606055737,1.321624756,1.165719271,1.811151981,0.975091457,1.514893532,1.337548733,1.256523848,1.610914469,1.83927989,1.063544035,1.557748318,0.864743948,1.566890001,1.654068947,1.496730804,1.158677816,1.292004108,1.101215124,1.62462616,Correct,Correct,Correct,Correct,Correct,Correct,Correct,Correct,Correct,Correct,Correct,Correct,Correct,Correct,Correct,Correct,Correct,Correct,Correct,Correct,1.381692786,1.566890001,0.95,0.05
28,32,1,M,control,25,10:43:04,False,False,False,False,True,False,False,False,False,False,False,False,True,False,False,False,False,True,True,False,1.137867212,1.969964981,1.613369703,1.179210186,1.376721859,2.226018906,2.278913736,2.077143192,1.634626389,1.558754683,2.171197414,1.059452534,1.655689478,1.497587204,1.858710289,2.624575853,2.183857679,1.577735186,1.084599495,1.401511192,Correct,Correct,Correct,Correct,Correct,Correct,Correct,Correct,Correct,Correct,Correct,Correct,Correct,Correct,Correct,Correct,Correct,Correct,Correct,Correct,1.7795475720625002,1.4236865045,0.8,0.2
29,32,2,M,control,25,10:51:32,False,False,False,False,True,False,False,False,False,False,False,False,False,True,False,True,True,True,True,True,1.994986296,3.09928894,1.032664061,1.696624041,1.612720013,2.463045835,1.166208982,2.043115139,1.136693954,0.971682787,2.021095514,1.422624826,0.899095535,1.317154408,1.358377218,1.961187124,0.699669361,1.434788227,1.966819525,0.758935452,Correct,Correct,Correct,Correct,Correct,Correct,Correct,Correct,Correct,Correct,Correct,Correct,Correct,Correct,Correct,Correct,Correct,Correct,Correct,Correct,1.6388848560000002,1.3930391585714286,0.65,0.35
30,33,1,M,control,24,11:26:23,True,False,False,False,True,False,False,False,False,False,True,False,False,False,False,False,True,True,False,False,2.246658087,2.315176725,1.771959305,1.628570318,1.838298559,1.691146374,1.679529428,2.379897594,2.436040878,1.328290939,1.982131243,2.225471735,1.873717785,1.816409588,2.8776021,2.206923962,2.128918171,1.639107466,2.015093088,2.554228783,Correct,Correct,Correct,Correct,Correct,Correct,Correct,Correct,Correct,Correct,Correct,Correct,Correct,Correct,Correct,Correct,Correct,Correct,Correct,Correct,2.053337240133333,1.9670227052000002,0.75,0.25
31,33,2,M,control,24,11:34:00,False,True,True,True,True,False,True,False,True,False,False,False,False,False,False,False,False,False,True,False,1.958046675,1.336795807,1.113584042,1.845966816,1.570031166,1.319222212,2.234767199,2.095674515,1.366227627,2.035972834,1.70391345,1.615885019,1.629707575,1.843724251,1.60956645,1.645098925,1.653288603,2.029267311,2.052013636,1.714520216,Correct,Correct,Correct,Correct,Correct,Correct,Correct,Correct,Correct,Correct,Correct,Correct,Correct,Correct,Correct,Correct,Correct,Correct,Correct,Correct,1.7579913873846151,1.6456266132857142,0.65,0.35
32,34,1,F,control,26,11:56:29,False,False,False,True,False,False,False,False,False,True,False,False,True,False,False,False,False,True,False,False,1.199540615,3.601738214,1.732147932,0.966511488,0.980831385,1.196357012,0.689825296,1.419472456,1.93336463,2.348125696,0.727927685,1.232973099,0.679112434,1.404146671,1.23494792,0.798684835,0.865894556,0.622176886,0.97010684,2.05999589,Correct,Correct,Correct,Correct,Correct,Correct,Correct,Correct,Correct,Correct,Correct,Correct,Correct,Correct,Correct,Correct,Correct,Correct,Correct,Correct,1.3779971897499999,1.153981626,0.8,0.2
33,34,2,F,control,26,11:58:57,False,False,True,False,False,True,False,False,True,True,False,True,True,False,False,False,False,False,False,False,0.911674023,1.757250786,1.056770563,2.236682653,1.54198885,1.061461687,1.653939009,0.776499987,0.716359377,0.746100426,1.21259141,0.827155828,1.281241179,0.932075262,0.650370598,0.997742653,0.922787666,1.571400642,1.798531294,0.921154022,Correct,Correct,Correct,Correct,Correct,Correct,Correct,Correct,Correct,Correct,Correct,Correct,Correct,Correct,Correct,Correct,Correct,Correct,Correct,Correct,1.277477775357143,0.9481815100000001,0.7,0.3
34,35,1,F,exercise,22,14:25:17,False,False,False,False,False,True,True,False,False,False,True,False,False,True,False,False,False,False,False,False,2.392965317,1.657161951,2.15178299,4.075509071,2.778769016,1.762423038,2.227214575,3.257449627,3.264767647,2.409557104,1.776020288,2.181885719,1.548429012,1.746979713,1.629118204,2.535258293,2.248764277,2.225790024,3.102328777,1.569605827,Correct,Correct,Correct,Correct,Correct,Correct,Correct,Correct,Correct,Correct,Correct,Correct,Correct,Correct,Correct,Correct,Correct,Correct,Correct,Correct,2.4393214285,1.8781594035,0.8,0.2
35,36,1,M,exercise,26,14:29:47,False,False,True,False,True,False,False,False,True,False,False,False,False,True,False,False,False,False,True,True,1.41145134,1.357174635,1.15057826,1.20897913,1.237436533,1.562921524,1.613616705,1.627902269,2.588567257,1.347285271,1.122028828,2.011852741,2.197024107,1.141375065,1.953480959,1.327267647,1.488767624,1.392052889,1.488792896,1.171673059,Correct,Correct,Correct,Correct,Correct,Correct,Correct,Correct,Correct,Correct,Correct,Correct,Correct,Correct,Correct,Correct,Correct,Correct,Correct,Correct,1.544414690642857,1.4630705116666665,0.7,0.3
36,35,2,F,exercise,22,14:32:52,True,False,False,False,False,False,False,False,False,False,True,True,False,False,True,True,False,False,False,False,1.928701162,2.460711479,1.827689648,1.710973263,2.101717472,1.312803745,2.461936235,3.280633926,3.472043514,2.13291502,1.950870514,1.305105925,2.579826117,2.74230361,1.46500206,1.866098404,1.76860261,1.931677341,1.974979877,2.153642654,Correct,Correct,Correct,Correct,Correct,Correct,Correct,Correct,Correct,Correct,Correct,Correct,Correct,Correct,Correct,Correct,Correct,Correct,Correct,Correct,2.260830434066667,1.7031556130000003,0.75,0.25
37,37,1,M,exercise,23,14:35:26,False,False,True,False,True,False,False,False,False,False,False,False,False,False,False,False,False,False,False,False,2.23022294,2.771107197,3.155345201,2.026991367,1.938471317,2.344857454,2.308284998,2.785895824,2.226824522,4.558172226,2.963898182,2.979842663,2.698587894,2.051432848,1.573001146,2.331624031,2.404514074,2.64124465,3.87231946,2.640638351,Correct,Correct,Correct,Correct,Correct,Correct,Correct,Correct,Correct,Correct,Correct,Correct,Correct,Correct,Correct,Correct,Correct,Correct,Correct,Correct,2.6338588792777777,2.546908259,0.9,0.1
38,36,2,M,exercise,24,14:38:21,False,False,False,False,True,False,False,False,False,False,False,False,False,False,False,False,False,False,True,False,1.315834284,1.467834711,1.792924643,1.259110451,1.372245312,1.392491102,1.451937199,1.843673944,1.474732161,1.370414734,1.27568841,1.511867285,2.071123838,1.142432451,1.253139019,1.112750769,1.429639816,1.459593296,1.069512844,1.703721762,Correct,Correct,Correct,Correct,Correct,Correct,Correct,Correct,Correct,Correct,Correct,Correct,Correct,Correct,Correct,Correct,Correct,Correct,Correct,Correct,1.4627172152777779,1.2208790779999998,0.9,0.1
39,37,2,M,exercise,23,14:43:18,False,False,False,False,True,False,False,True,False,False,False,False,False,False,False,False,False,False,True,False,1.958901405,2.130910158,1.814278364,1.880828381,2.33773303,2.169409513,2.301347256,2.198730946,2.271870852,2.08025074,2.677904367,1.75544548,2.287327528,3.298982382,2.507601023,1.940985918,2.390640497,2.1009655,1.955690861,1.886835337,Correct,Correct,Correct,Correct,Correct,Correct,Correct,Correct,Correct,Correct,Correct,Correct,Correct,Correct,Correct,Correct,Correct,Correct,Correct,Correct,2.203204982411765,2.1640516123333335,0.85,0.15
40,38,1,M,exercise,22,14:52:47,False,False,False,False,False,False,False,False,False,False,True,False,False,False,True,False,True,False,False,False,1.659790516,1.341601849,1.333146095,1.214908838,1.760062933,1.525434732,1.928641081,2.039790392,1.953301668,2.019340515,1.807012558,1.612208366,1.187212706,1.445055485,1.663590431,2.093123198,1.187369585,1.834615469,1.598037958,1.761104345,Correct,Correct,Correct,Correct,Correct,Correct,Correct,Correct,Correct,Correct,Correct,Correct,Correct,Correct,Correct,Correct,Correct,Correct,Correct,Correct,1.6651397732941176,1.5526575246666667,0.85,0.15
41,38,2,M,exercise,22,15:01:44,False,True,True,True,False,False,False,False,False,False,False,False,False,False,False,False,False,False,False,False,2.605353117,1.629226923,2.31379056,1.164819241,1.518288851,1.6269629,1.287638903,1.629145384,1.915666342,1.347893715,1.613411903,1.64124155,1.72434783,1.473986626,1.532125473,1.731697559,1.360158205,1.634402037,1.68761754,1.503232718,Correct,Correct,Correct,Correct,Correct,Correct,Correct,Correct,Correct,Correct,Correct,Correct,Correct,Correct,Correct,Correct,Correct,Correct,Correct,Correct,1.6372453325294118,1.7026122413333333,0.85,0.15
42,39,1,M,control,22,15:05:15,False,False,True,False,True,True,False,False,False,False,False,True,False,False,False,False,True,True,False,False,1.551522017,1.591240644,1.399032831,1.472344637,1.448937654,1.420579195,1.479221821,1.457325697,1.530348063,1.404496431,1.332177639,1.744983912,1.507372379,1.310990572,1.368594646,1.198506117,1.170057297,1.286556959,1.037825346,1.782523155,Correct,Correct,Correct,Correct,Correct,Correct,Correct,Correct,Correct,Correct,Correct,Correct,Correct,Correct,Correct,Correct,Correct,Correct,Correct,Correct,1.4303206545714287,1.411691308,0.7,0.3
43,39,2,M,control,22,15:13:07,False,False,False,True,False,False,False,False,False,True,False,False,False,False,True,False,False,False,False,False,2.812618971,1.265166283,1.259905815,1.113464594,1.170838356,1.348196268,1.407799482,1.406108618,1.194724321,1.244930029,1.355107546,1.267064333,1.391083241,1.43584013,1.207029104,1.907521009,1.138883829,1.154947042,1.318150997,1.649250269,Correct,Correct,Correct,Correct,Correct,Correct,Correct,Correct,Correct,Correct,Correct,Correct,Correct,Correct,Correct,Correct,Correct,Correct,Correct,Correct,1.440188618235294,1.1884745756666668,0.85,0.15
44,131,1,M,exercise,29,15:52:36,False,True,False,False,False,False,False,False,False,False,True,False,False,True,False,False,False,False,False,False,2.345935106,1.820084572,3.144622087,3.330123901,2.130656004,1.826630354,3.766700506,2.529874086,1.567584515,2.137863398,1.612277031,1.642878771,1.634589672,2.10125351,1.700252533,1.788650513,1.8566401,2.574850559,1.271900177,1.612799883,Correct,Correct,Correct,Correct,Correct,Correct,Correct,Correct,Correct,Correct,Correct,Correct,Correct,Correct,Correct,Correct,Correct,Correct,Correct,Correct,2.1683854214705884,1.8445383709999998,0.85,0.15
45,131,2,M,exercise,29,16:02:31,False,False,True,False,True,False,False,True,False,True,True,False,True,False,False,True,False,False,False,False,2.063826561,1.865069628,1.339040995,2.093080044,1.412577629,1.731258631,1.478751183,1.91545558,1.553473949,1.3679986,1.39700985,2.840974808,1.213246822,1.190461397,2.047000408,1.323244333,1.626535416,1.611884594,1.331785917,1.530537605,Correct,Correct,Correct,Correct,Correct,Correct,Correct,Correct,Correct,Correct,Correct,Correct,Correct,Correct,Correct,Correct,Correct,Correct,Correct,Correct,1.7665107800769229,1.4240819727142855,0.65,0.35
46,132,1,M,control,28,16:30:54,False,False,False,False,True,False,False,True,False,False,False,False,True,False,False,False,False,True,False,False,3.610988617,1.671234846,1.797248602,1.181956768,1.189362764,2.468857527,1.352070332,1.405161381,1.122519255,1.455717564,1.529408693,2.276823044,1.507843256,2.446847916,1.152101994,1.085748434,1.35200882,1.944711685,1.885556459,1.551997423,Correct,Correct,Correct,Correct,Correct,Correct,Correct,Correct,Correct,Correct,Correct,Correct,Correct,Correct,Correct,Correct,Correct,Correct,Correct,Correct,1.746317893375,1.5117697715,0.8,0.2
47,132,2,M,control,28,16:37:40,True,False,False,False,False,False,False,False,False,False,False,False,False,False,False,False,False,False,False,False,1.618743658,1.441754103,2.641143322,1.98948884,1.804003716,1.899651766,1.455912828,1.255711079,2.151177645,1.514201641,2.622831345,1.839252472,1.551958084,1.587751865,1.634225845,1.307873964,2.298744202,1.86239171,2.462328434,1.500220537,Correct,Correct,Correct,Correct,Correct,Correct,Correct,Correct,Correct,Correct,Correct,Correct,Correct,Correct,Correct,Correct,Correct,Correct,Correct,Correct,1.8326643893684211,1.618743658,0.95,0.05
48,133,1,M,exercise,23,10:29:05,False,False,False,False,False,False,True,False,True,True,False,False,False,False,False,False,False,False,True,False,1.79182148,1.136170626,2.126844883,1.572951317,1.298595667,1.550071716,1.503628969,1.601691008,1.970969439,1.342767715,1.427996159,1.507223606,1.521407366,1.866924047,1.727874517,1.321436882,2.53994441,2.667223454,1.314332724,1.381063938,Correct,Correct,Correct,Correct,Correct,Correct,Correct,Correct,Correct,Correct,Correct,Correct,Correct,Correct,Correct,Correct,Correct,Correct,Correct,Correct,1.68995256725,1.53292471175,0.8,0.2
49,134,1,M,control,25,10:33:21,True,False,False,False,False,False,False,False,False,False,False,False,False,False,False,True,False,False,False,False,1.193758011,1.806001425,1.482900858,1.393311262,1.749939442,1.219995737,1.43039155,1.159559965,1.356659889,1.12570262,1.278841734,1.127418518,1.638981581,2.205954313,1.497811079,1.524944067,1.415189266,1.609295607,1.262426853,1.525088549,Correct,Correct,Correct,Correct,Correct,Correct,Correct,Correct,Correct,Correct,Correct,Correct,Correct,Correct,Correct,Correct,Correct,Correct,Correct,Correct,1.4603039026666667,1.3593510389999999,0.9,0.1
50,133,2,M,exercise,23,10:40:48,False,False,True,False,False,False,False,False,True,False,False,False,False,False,True,True,False,False,True,True,2.773981094,1.43872261,1.528922796,1.298151016,1.742544651,1.417274714,1.157821655,1.099918127,1.025300503,1.424842596,2.007797956,1.505089521,1.705273628,1.44664216,1.683739662,1.675127268,1.513036013,1.498152256,1.579993725,1.24076128,Correct,Correct,Correct,Correct,Correct,Correct,Correct,Correct,Correct,Correct,Correct,Correct,Correct,Correct,Correct,Correct,Correct,Correct,Correct,Correct,1.5735177140714287,1.4556408723333334,0.7,0.3
51,134,2,M,control,25,10:42:18,True,False,False,False,False,False,False,False,False,False,True,True,False,False,True,True,True,True,False,False,2.113591433,2.038751364,1.846112967,1.885968447,1.224736691,1.210771322,1.202901125,0.950728655,1.047014952,1.055744648,1.674055815,1.348815918,1.623091221,1.461075783,1.187544346,1.313733101,1.325621367,0.965415001,1.75671196,1.579302549,Correct,Correct,Correct,Correct,Correct,Correct,Correct,Correct,Correct,Incorrect,Correct,Correct,Correct,Correct,Correct,Correct,Correct,Correct,Correct,Correct,1.485597253,1.4183967115714287,0.6,0.35
52,135,1,F,control,24,12:34:40,False,True,True,False,False,True,False,False,False,True,False,False,True,False,False,False,True,False,False,True,1.051914692,1.255472898,1.266752243,1.609532118,1.911303043,1.087096453,1.663148165,1.194939613,1.121783257,1.143958807,1.388783455,1.558570385,1.302185535,0.996562719,1.079387665,1.011300564,1.710591555,1.145428181,1.247653246,0.893185854,Correct,Correct,Correct,Correct,Correct,Correct,Correct,Correct,Correct,Correct,Correct,Correct,Correct,Correct,Correct,Correct,Correct,Correct,Correct,Correct,1.3061774694615382,1.2370347635714283,0.65,0.35
53,136,1,F,control,23,12:37:54,False,True,False,False,True,False,False,False,False,False,False,False,True,False,False,False,False,False,False,False,1.674048662,1.623684168,1.475099802,1.195067167,1.246583223,1.903016806,1.283888817,1.326757193,1.977068663,1.377401114,1.422727346,1.445164442,1.134932041,1.65287137,1.681907892,1.851590395,1.112718344,1.202136278,1.319403648,1.644566536,Correct,Correct,Incorrect,Correct,Correct,Correct,Correct,Correct,Correct,Correct,Correct,Correct,Correct,Correct,Correct,Correct,Correct,Correct,Correct,Correct,1.5043959170624999,1.3350664773333332,0.8,0.15
54,135,2,F,control,24,12:41:55,False,False,False,False,True,False,False,False,True,True,False,False,False,False,False,True,False,False,False,False,1.545163631,1.704407454,1.17527771,0.88669467,0.841969967,1.448200464,1.107206106,1.026896715,1.35029459,0.995106697,1.190025806,1.128787041,1.220934868,1.243578434,0.898890257,0.816972017,1.549050808,1.414304972,1.519798994,1.170478344,Correct,Correct,Correct,Correct,Correct,Correct,Correct,Correct,Correct,Correct,Correct,Correct,Correct,Correct,Correct,Correct,Correct,Correct,Correct,Correct,1.264356017125,1.0010858177500002,0.8,0.2
55,136,2,F,control,23,12:47:17,True,False,True,False,False,True,False,False,True,False,True,False,False,False,True,False,False,False,False,False,1.79761982,1.674060106,1.356081247,1.629586697,1.874393463,1.299248457,2.243016958,1.402686834,1.84322691,1.659929752,1.253721476,1.793075323,1.327291965,1.585958481,1.224735975,1.076409101,1.556453705,1.112069607,1.238976717,1.297302008,Correct,Correct,Correct,Correct,Correct,Correct,Correct,Correct,Correct,Correct,Correct,Correct,Correct,Correct,Correct,Correct,Correct,Correct,Correct,Correct,1.5336579083571427,1.4624389808333333,0.7,0.3
56,137,1,M,exercise,22,12:50:29,True,False,True,False,False,False,False,False,False,False,False,True,True,True,False,True,False,False,True,False,2.586070299,1.670288801,1.879772663,4.030763865,2.122666121,2.681938171,1.476448536,4.51199007,2.0455513,2.023132563,3.54315567,3.347757101,1.325220108,2.274886131,1.696742773,2.745154858,3.524584293,2.231131792,2.288619757,2.096328974,Correct,Correct,Correct,Correct,Correct,Correct,Correct,Correct,Correct,Correct,Correct,Correct,Correct,Correct,Correct,Correct,Correct,Correct,Correct,Correct,2.588824840692308,2.349640131,0.65,0.35
57,137,2,M,exercise,22,12:58:47,False,False,False,False,False,False,False,True,False,False,False,False,False,True,False,True,False,False,False,True,1.691507578,2.150244236,1.567436695,1.276524544,1.255667925,1.205788136,2.804903507,2.519933224,2.434761524,1.860064507,1.312753916,3.446214199,2.41459322,2.448589325,2.116293192,2.502071619,2.061383247,2.082504034,1.054115057,1.244330645,Correct,Correct,Correct,Correct,Correct,Correct,Correct,Correct,Correct,Correct,Correct,Correct,Correct,Correct,Correct,Correct,Correct,Correct,Correct,Correct,1.9209222198125,2.17873120325,0.8,0.2
58,138,1,M,control,26,13:57:02,False,False,True,False,True,False,True,True,False,False,False,False,True,False,False,False,False,True,False,False,1.92939043,2.853844404,2.38133359,1.664379835,2.462071657,2.246778488,1.482732773,1.863790512,1.539992332,2.203104973,1.914803743,1.818585634,1.311648607,1.596146584,1.973949432,1.857232332,1.341585875,1.585774422,1.592015266,1.739419699,Correct,Correct,Correct,Correct,Correct,Correct,Correct,Correct,Correct,Correct,Correct,Correct,Correct,Correct,Correct,Correct,Correct,Correct,Correct,Correct,1.8765163590714287,1.8478919268333334,0.7,0.3
59,138,2,M,control,26,14:04:29,False,True,True,False,True,False,False,True,True,True,False,False,False,False,False,False,False,False,True,False,2.433619738,1.466037273,1.266751766,1.860066652,1.879728317,1.585919142,1.629419565,1.268759966,1.917502403,1.688319445,1.435958624,1.620732546,2.883550406,2.264723778,1.702461481,1.385893822,1.78979969,1.575402498,1.473627567,1.634611368,Correct,Correct,Correct,Correct,Correct,Correct,Correct,Correct,Correct,Correct,Correct,Correct,Correct,Correct,Correct,Correct,Correct,Correct,Correct,Correct,1.8309353315384613,1.5658181052857143,0.65,0.35
60,139,1,M,exercise,23,15:05:44,False,False,False,True,False,False,False,False,False,False,False,False,False,False,True,False,False,False,False,False,2.376761198,1.366721153,1.710583925,1.961204052,2.04433322,1.432923079,2.046498537,1.175087452,1.77058363,1.403706312,1.335471392,1.32053113,1.342942476,1.297757149,1.365556717,1.525534153,1.113600254,1.194895983,1.948592901,0.921191216,Correct,Correct,Correct,Correct,Correct,Correct,Correct,Correct,Correct,Correct,Correct,Correct,Correct,Correct,Correct,Correct,Correct,Correct,Correct,Incorrect,1.553324937882353,1.6633803845,0.85,0.1
61,139,2,M,exercise,23,15:12:59,False,False,False,False,False,False,False,True,False,False,False,False,False,False,False,True,False,False,False,False,1.457747698,1.213398933,1.351891756,0.967676401,1.228917122,1.003542423,1.277867317,1.137532473,1.645920515,1.174242735,1.375381708,1.131195784,2.675797224,1.55053854,1.395702839,1.160070181,1.809352875,1.174883842,1.606202602,0.913674116,Correct,Correct,Correct,Correct,Correct,Correct,Correct,Correct,Correct,Correct,Correct,Correct,Correct,Correct,Correct,Correct,Correct,Correct,Correct,Correct,1.3863296905555555,1.1488013270000001,0.9,0.1
62,140,1,M,exercise,22,15:49:02,False,True,True,True,False,False,False,False,False,False,False,True,False,True,True,False,False,False,False,True,2.044151306,1.851274729,1.066580057,1.574751616,1.496908426,1.458937168,1.906891108,2.536479473,1.769022942,1.394733429,1.475960016,1.260702133,1.244593859,1.72642827,3.422961712,1.896339417,1.600230455,1.446770668,1.265454054,1.584832668,Correct,Correct,Correct,Correct,Correct,Correct,Correct,Incorrect,Correct,Correct,Correct,Correct,Correct,Correct,Incorrect,Incorrect,Incorrect,Incorrect,Correct,Correct,1.5618502564444445,1.5107615788333335,0.45,0.3
63,140,2,M,exercise,22,15:56:21,False,False,True,False,False,False,False,False,True,False,False,False,False,True,False,False,False,False,False,False,2.131952047,1.237835407,1.128156185,1.299423933,1.978380442,1.416624546,1.232003689,1.23870635,2.10967803,1.298582077,1.682226419,2.052769184,1.542969942,1.371336699,1.727426767,2.080193758,2.108055115,1.402175903,1.998996735,2.625193834,Correct,Correct,Correct,Correct,Correct,Correct,Correct,Correct,Correct,Correct,Correct,Correct,Correct,Correct,Correct,Correct,Correct,Correct,Correct,Correct,1.7090303616470588,1.5363903046666667,0.85,0.15
64,141,1,M,control,29,19:13:51,False,True,False,True,False,False,False,False,False,False,False,False,False,False,False,False,False,False,False,False,1.387214661,1.671392202,1.351103783,2.085902452,1.564873934,1.085716963,1.17925024,1.108329058,1.518032074,1.031079054,1.542144775,1.437022448,0.926678419,1.785706758,1.289721966,1.04653573,1.01811409,1.772298098,1.66047883,1.105602503,Correct,Correct,Correct,Correct,Correct,Correct,Correct,Correct,Correct,Correct,Correct,Correct,Correct,Correct,Correct,Correct,Correct,Correct,Correct,Correct,1.322772410222222,1.878647327,0.9,0.1
65,142,1,M,control,23,19:16:31,False,True,False,False,True,False,True,False,False,False,False,True,True,False,False,False,True,False,False,True,2.588091612,3.066646338,2.09389329,4.256898642,1.785680532,3.52532959,3.370976686,2.470966339,4.699495792,2.154473305,2.24998951,1.244411469,2.855405092,1.917906284,3.718693972,1.354735851,1.535122871,1.816311359,3.80715251,1.214805365,Correct,Correct,Correct,Correct,Correct,Correct,Correct,Correct,Correct,Correct,Correct,Correct,Correct,Correct,Correct,Incorrect,Correct,Incorrect,Correct,Correct,3.043899167818182,2.153292621857143,0.55,0.35
66,141,2,M,control,29,19:24:14,False,False,False,True,False,False,False,False,False,True,False,True,False,False,True,False,False,False,True,False,1.893517017,1.011076212,1.129563332,2.095743895,1.438955069,0.891742229,1.482775927,0.90640974,1.556993246,0.989756107,1.393446684,1.622610331,1.314065218,0.929354429,0.924240351,1.113885641,1.07686162,1.622820854,1.643174648,1.526383877,Correct,Correct,Correct,Correct,Correct,Correct,Correct,Correct,Correct,Correct,Correct,Correct,Correct,Correct,Correct,Correct,Correct,Correct,Correct,Correct,1.2858567396666667,1.4551050663999998,0.75,0.25
67,142,2,M,control,23,19:26:54,False,False,False,False,False,False,False,False,False,False,False,False,False,False,True,False,False,False,False,False,2.972050667,2.5896492,2.966923475,2.487091064,3.865587234,2.767873287,2.612084389,2.20620203,2.278483629,2.220787287,2.722563267,1.814505816,2.816167593,2.855145693,2.225667953,1.866064072,3.984005451,2.530160427,2.567968369,1.754454613,Correct,Correct,Incorrect,Correct,Correct,Correct,Correct,Correct,Correct,Correct,Correct,Correct,Correct,Correct,Correct,Correct,Incorrect,Incorrect,Correct,Correct,2.5247923881250003,2.225667953,0.8,0.05
68,143,1,F,control,27,20:21:16,False,False,False,False,False,False,False,False,False,False,False,False,False,False,True,False,True,False,False,False,1.669685364,2.003852129,1.783708096,1.504592657,1.497476339,2.168224573,1.113812447,1.340449572,1.938501835,1.697350264,1.202818155,1.668348312,1.483388901,2.227735281,1.238795996,1.43162775,1.310515881,1.363548756,1.202649593,2.034934521,Correct,Correct,Correct,Correct,Correct,Correct,Correct,Correct,Correct,Correct,Correct,Correct,Correct,Correct,Correct,Correct,Correct,Correct,Correct,Correct,1.6295946969444444,1.2746559385,0.9,0.1
69,143,2,F,control,27,20:26:34,False,False,True,True,False,True,False,False,False,False,False,False,True,True,False,False,False,False,False,False,1.125482082,1.778707027,1.614582777,1.245213747,1.208334446,1.563750505,1.984579086,2.640444756,1.238099337,1.859003305,1.23761034,1.2165308,1.149119377,1.932245493,1.790767908,2.18821454,1.332899809,1.31905055,1.614521742,2.160646915,Correct,Correct,Correct,Correct,Correct,Correct,Correct,Correct,Correct,Correct,Correct,Correct,Correct,Correct,Correct,Correct,Correct,Correct,Correct,Correct,1.6463261762,1.5009823798,0.75,0.25
70,144,1,F,control,29,21:24:26,False,False,False,False,False,False,False,False,False,False,False,True,False,False,False,False,False,False,False,False,1.687436342,3.109424591,1.85925746,1.838281393,2.08516407,1.59075141,1.428946257,1.725524664,1.061306477,1.676195621,1.356037378,1.073400259,1.248018742,1.769659042,1.146533012,1.576830149,0.873535872,1.303056717,1.383042097,1.072405815,Correct,Correct,Correct,Correct,Correct,Correct,Correct,Correct,Correct,Correct,Correct,Correct,Correct,Correct,Correct,Correct,Correct,Correct,Correct,Correct,1.5679687952105263,1.073400259,0.95,0.05
71,144,2,F,control,29,21:29:52,False,False,False,False,False,False,True,False,False,False,False,False,False,False,False,False,True,True,False,False,1.51913619,1.192060709,1.246224165,1.35179472,1.085508108,1.699743032,1.698263407,1.566964388,0.978093863,1.188360691,1.127776146,2.023293018,1.535168886,1.448168755,1.048734188,0.926771879,1.300417662,1.715387821,1.444799662,1.221637011,Correct,Correct,Correct,Correct,Correct,Correct,Correct,Correct,Correct,Correct,Correct,Correct,Correct,Correct,Correct,Correct,Correct,Correct,Correct,Correct,1.3296609065294116,1.5713562966666668,0.85,0.15
72,50,1,M,exercise,24,09:52:16,False,False,False,False,False,False,False,False,True,False,False,False,False,True,True,False,False,False,False,False,1.397763729,0.940419912,1.616384506,0.828005314,1.356147289,1.004341125,1.278223515,1.354931593,1.414642334,1.598649502,0.948654413,1.753626585,1.690371513,1.203631163,1.364842892,1.36309123,2.910728931,1.008437157,1.04865694,0.843933344,Correct,Correct,Correct,Correct,Correct,Correct,Correct,Correct,Correct,Correct,Correct,Correct,Correct,Correct,Correct,Correct,Correct,Correct,Correct,Correct,1.3495509763529412,1.327705463,0.85,0.15
73,50,2,M,exercise,24,10:02:09,False,True,False,False,False,False,False,False,False,True,False,True,False,False,False,False,False,False,True,False,2.253889799,1.321959972,2.322122812,0.932182789,0.905943632,2.216025352,0.818357944,1.881310225,1.25718379,0.900494814,0.932835817,0.984189987,1.2240417,1.168567419,0.806217432,1.113254786,1.346363068,1.578219414,2.288681984,1.240413666,Correct,Correct,Correct,Correct,Correct,Correct,Correct,Correct,Correct,Correct,Correct,Correct,Correct,Correct,Correct,Correct,Incorrect,Correct,Correct,Correct,1.3767044384666665,1.3738316892500002,0.75,0.2
74,51,1,F,exercise,25,10:11:04,True,False,False,False,False,False,True,False,True,False,False,False,False,True,False,False,False,False,True,False,2.008411169,1.902970552,1.95321846,2.155068636,1.915935755,2.58963728,2.259503841,1.874275923,1.872977018,1.773428679,3.010242939,1.986763716,1.326373577,2.001786232,2.081938028,1.658226013,1.730584145,1.563118696,1.706073761,1.355524778,Correct,Correct,Correct,Correct,Correct,Correct,Correct,Correct,Correct,Correct,Correct,Correct,Correct,Correct,Correct,Correct,Correct,Correct,Correct,Correct,1.9251538118,1.9697504042000002,0.75,0.25
75,51,2,F,exercise,25,10:18:41,False,False,False,False,False,True,False,False,False,False,True,False,False,False,True,False,False,False,True,False,2.917724848,1.824262381,1.946453333,1.925584793,1.870842695,2.020842314,1.508607626,2.347046137,1.840649843,2.938884497,1.645047188,1.877984762,1.376420021,1.808087349,1.605067492,1.611777544,2.415316343,1.346056461,1.651876926,1.368914604,Correct,Correct,Correct,Correct,Correct,Correct,Correct,Correct,Correct,Correct,Correct,Correct,Correct,Correct,Correct,Correct,Correct,Correct,Correct,Correct,1.9327883273125002,1.7307084799999999,0.8,0.2
76,52,1,M,exercise,26,10:00:29,False,False,False,False,False,False,False,True,False,False,False,False,False,False,False,False,False,False,False,False,2.190585375,2.762190104,1.539300203,1.445669413,3.072317839,2.668694496,1.972813845,2.11841464,2.52505374,2.393092394,2.090001106,2.394859791,2.480538368,1.93664813,2.783213854,2.278055429,3.184337378,1.856873989,2.313592672,1.568730831,Correct,Correct,Correct,Correct,Correct,Correct,Correct,Correct,Correct,Correct,Correct,Correct,Correct,Correct,Correct,Correct,Correct,Correct,Correct,Correct,2.2871878398421055,2.11841464,0.95,0.05
77,52,2,M,exercise,26,10:09:33,False,True,False,False,False,True,False,False,False,False,True,False,False,True,False,True,False,False,True,True,2.553454161,1.611126661,2.228664875,1.60725832,2.49542737,1.278224945,2.372674227,3.154366255,1.924326897,1.352022409,1.997920275,1.984166861,2.967134953,1.482049465,2.453430176,1.563412905,1.952780247,1.772459507,1.628129482,1.431768179,Correct,Correct,Correct,Correct,Correct,Correct,Correct,Correct,Correct,Correct,Correct,Correct,Correct,Correct,Correct,Correct,Correct,Correct,Correct,Correct,2.216782019846154,1.5703759874285714,0.65,0.35
78,53,1,M,exercise,25,10:14:33,False,False,False,False,False,True,False,True,False,False,True,False,False,True,False,True,False,True,False,False,1.199172497,1.27815938,1.34999752,1.338485003,1.394766808,1.104038954,1.381590128,1.301923275,1.538366079,1.335261345,1.234052181,1.185820103,1.394777536,1.286133766,1.079144478,1.345615864,1.719580412,1.564061403,1.352655888,1.18428421,Correct,Correct,Correct,Correct,Correct,Correct,Correct,Correct,Correct,Correct,Correct,Correct,Correct,Correct,Correct,Correct,Correct,Correct,Correct,Correct,1.3380043847857144,1.3059709071666668,0.7,0.3
79,53,2,M,exercise,25,10:23:48,False,False,True,False,False,False,False,False,True,True,False,False,False,False,False,False,False,False,False,False,1.495807648,1.372232914,1.186450958,1.314636469,1.60324502,1.619820356,1.591320276,1.583537817,1.003190279,1.34430933,1.185744047,1.538555622,1.495454788,1.05320096,1.192432642,1.320719719,1.105790377,1.330538034,1.474242687,1.366991758,Correct,Correct,Correct,Correct,Correct,Correct,Correct,Correct,Correct,Correct,Correct,Correct,Correct,Correct,Correct,Correct,Correct,Correct,Correct,Correct,1.3908394784705884,1.1779835223333333,0.85,0.15
80,54,1,M,exercise,25,10:29:44,False,False,True,False,True,False,False,False,False,False,True,True,False,False,False,False,True,False,True,False,1.08171916,1.239017963,1.272426128,0.830119133,1.167346954,1.024117708,0.913855553,1.13032937,0.96396184,1.201956749,1.092535734,0.898597479,0.883903742,1.504380941,2.003295898,1.078234434,0.954239607,1.437542439,1.076904058,1.01411891,Correct,Correct,Correct,Correct,Correct,Correct,Incorrect,Correct,Correct,Correct,Correct,Correct,Correct,Correct,Correct,Correct,Correct,Correct,Correct,Correct,1.1840537143846155,1.0770083266666668,0.65,0.3
81,54,2,M,exercise,25,10:37:55,False,True,False,False,False,True,False,False,False,False,False,True,False,False,False,False,False,False,True,False,1.270102978,0.983762026,1.389380455,1.066253662,1.446577072,1.499709845,0.912001133,0.918256283,0.904521227,0.964592218,1.028222084,1.419706106,1.352633476,1.507101774,0.950767994,0.947380781,0.986679316,1.804294825,0.899938822,0.841714144,Correct,Correct,Correct,Correct,Correct,Correct,Correct,Correct,Correct,Correct,Correct,Correct,Correct,Correct,Correct,Correct,Correct,Correct,Correct,Correct,1.1431549638749998,1.20077919975,0.8,0.2
82,55,1,F,exercise,18,12:16:22,False,False,False,False,False,False,False,False,False,False,False,False,False,False,False,False,False,False,False,False,2.487668753,2.555342197,1.286813259,1.337089062,1.786764622,1.649356604,1.6410923,1.396356344,2.777493954,1.627296209,2.330590963,1.743414402,1.582880735,1.685307503,2.083330154,1.439140081,1.194164991,1.931029558,1.910276413,1.124800444,Correct,Correct,Correct,Correct,Correct,Correct,Correct,Correct,Correct,Correct,Correct,Correct,Correct,Correct,Correct,Correct,Correct,Correct,Correct,Correct,1.7785104274,,1.0,0.0
83,55,2,F,exercise,18,12:25:30,True,False,False,True,False,False,True,False,True,False,False,False,False,False,True,False,False,False,True,False,1.915223122,1.155696392,1.526705265,1.279608488,1.070210218,1.224561453,1.880213499,1.135196924,1.251562119,1.460324526,1.173344374,1.438523054,2.133895397,1.306913614,1.143222332,1.634997368,1.800591946,1.895146132,1.373568058,1.988329649,Correct,Correct,Correct,Correct,Correct,Correct,Correct,Correct,Correct,Correct,Correct,Correct,Correct,Correct,Correct,Correct,Correct,Correct,Correct,Correct,1.4960311651428573,1.4738996029999998,0.7,0.3
84,56,1,M,control,24,14:33:08,False,False,True,False,False,False,False,False,False,False,False,False,True,True,False,False,False,False,False,False,1.1183443069458,1.47109127044678,1.52493095397949,1.42475485801697,2.075364112854,1.7939600944519,1.31667256355286,1.1426465511322,1.2799870967865,1.27982211112976,1.3375072479248,1.51198387145996,1.09922981262207,1.12762665748596,1.27237749099731,1.15867495536804,1.14905762672424,1.3308482170105,1.18551087379456,1.50189638137817,Correct,Correct,Correct,Correct,Correct,Correct,Correct,Correct,Correct,Correct,Correct,Correct,Correct,Correct,Correct,Correct,Correct,Correct,Correct,Correct,1.3735588017631972,1.2505958080291733,0.85,0.15
85,56,2,M,control,24,14:40:19,False,False,False,False,False,False,False,False,False,False,False,False,False,False,True,False,False,True,False,False,1.08303809165955,1.30831170082092,1.17758655548096,1.67837977409363,1.35213136672974,1.17757391929626,0.794983625411987,1.33746528625488,0.98895788192749,1.34428358078003,1.01963353157043,1.43207764625549,1.19995927810669,2.0229868888855,1.30148649215698,1.46891260147095,1.98941278457642,0.932047128677368,1.17812752723694,1.21465063095093,Correct,Correct,Correct,Correct,Correct,Correct,Correct,Correct,Correct,Correct,Correct,Correct,Correct,Correct,Correct,Correct,Correct,Correct,Correct,Correct,1.320470703972711,1.116766810417174,0.9,0.1
